EXPERIMENT FILE
Version = 2

[ Experiment Parameters ]
Experiment Description= <none> 
Number_of_Regions_in_Experiment= 1 

Original_File_name= C:\alexesca\data\0824Au_PowSupWU_2.xps 
Instrument= HP ESCA West
Date= 08-24-2012
Time=  15:13:19

[ Layer Parameters ]
Layer_Type= XPS

[ Region 1 Parameters ]
Region_Description = Au Dithered Scan Test              
BEcenter(eV) = 91.000000
BEwidth(eV) = 10.000000
BEstep(eV) = 0.035937
Dwell_Time(sec) = 1.000000
N_o_scans = 1  
N_o_Channels = 278  
Scan_mode = 0  (DITHERED)

[ L= 1 R= 1 ]
BEcenter= 91.000  
BEwidth= -9.955  
Excitation= 1486.600
Time_p_channel= 256.000 
Size= 278
95.977   1.30000000e+01 
95.941   1.10000000e+01 
95.905   1.50000000e+01 
95.870   1.70000000e+01 
95.834   1.50000000e+01 
95.798   1.70000000e+01 
95.762   1.60000000e+01 
95.726   8.00000000e+00 
95.690   1.20000000e+01 
95.654   1.70000000e+01 
95.618   1.70000000e+01 
95.582   1.10000000e+01 
95.546   1.00000000e+01 
95.510   1.60000000e+01 
95.474   1.10000000e+01 
95.438   1.40000000e+01 
95.402   1.80000000e+01 
95.366   1.80000000e+01 
95.330   2.10000000e+01 
95.295   1.50000000e+01 
95.259   1.00000000e+01 
95.223   1.80000000e+01 
95.187   1.90000000e+01 
95.151   2.20000000e+01 
95.115   2.00000000e+01 
95.079   2.00000000e+01 
95.043   2.60000000e+01 
95.007   1.40000000e+01 
94.971   2.20000000e+01 
94.935   2.80000000e+01 
94.899   1.50000000e+01 
94.863   2.20000000e+01 
94.827   2.60000000e+01 
94.791   3.00000000e+01 
94.755   3.90000000e+01 
94.720   2.80000000e+01 
94.684   3.40000000e+01 
94.648   2.10000000e+01 
94.612   4.50000000e+01 
94.576   3.30000000e+01 
94.540   3.10000000e+01 
94.504   2.40000000e+01 
94.468   3.40000000e+01 
94.432   3.20000000e+01 
94.396   3.00000000e+01 
94.360   4.30000000e+01 
94.324   3.20000000e+01 
94.288   3.10000000e+01 
94.252   2.80000000e+01 
94.216   3.50000000e+01 
94.180   3.50000000e+01 
94.145   2.50000000e+01 
94.109   3.40000000e+01 
94.073   2.30000000e+01 
94.037   4.10000000e+01 
94.001   3.00000000e+01 
93.965   3.40000000e+01 
93.929   3.10000000e+01 
93.893   2.50000000e+01 
93.857   2.70000000e+01 
93.821   2.20000000e+01 
93.785   2.80000000e+01 
93.749   1.70000000e+01 
93.713   3.00000000e+01 
93.677   2.30000000e+01 
93.641   1.70000000e+01 
93.605   3.50000000e+01 
93.570   1.40000000e+01 
93.534   2.40000000e+01 
93.498   2.20000000e+01 
93.462   2.20000000e+01 
93.426   2.30000000e+01 
93.390   1.80000000e+01 
93.354   1.70000000e+01 
93.318   1.60000000e+01 
93.282   2.20000000e+01 
93.246   2.00000000e+01 
93.210   2.10000000e+01 
93.174   1.20000000e+01 
93.138   1.40000000e+01 
93.102   1.80000000e+01 
93.066   1.10000000e+01 
93.030   1.50000000e+01 
92.995   1.00000000e+01 
92.959   1.00000000e+01 
92.923   1.40000000e+01 
92.887   9.00000000e+00 
92.851   1.00000000e+01 
92.815   1.20000000e+01 
92.779   8.00000000e+00 
92.743   1.50000000e+01 
92.707   1.60000000e+01 
92.671   9.00000000e+00 
92.635   6.00000000e+00 
92.599   7.00000000e+00 
92.563   1.60000000e+01 
92.527   9.00000000e+00 
92.491   1.10000000e+01 
92.455   1.30000000e+01 
92.420   1.10000000e+01 
92.384   1.30000000e+01 
92.348   1.30000000e+01 
92.312   7.00000000e+00 
92.276   1.60000000e+01 
92.240   6.00000000e+00 
92.204   6.00000000e+00 
92.168   1.00000000e+01 
92.132   1.50000000e+01 
92.096   1.80000000e+01 
92.060   1.70000000e+01 
92.024   1.70000000e+01 
91.988   1.30000000e+01 
91.952   1.10000000e+01 
91.916   2.00000000e+01 
91.880   1.40000000e+01 
91.845   2.00000000e+01 
91.809   2.00000000e+01 
91.773   1.60000000e+01 
91.737   1.40000000e+01 
91.701   2.10000000e+01 
91.665   2.60000000e+01 
91.629   2.10000000e+01 
91.593   1.30000000e+01 
91.557   2.30000000e+01 
91.521   2.50000000e+01 
91.485   2.70000000e+01 
91.449   1.90000000e+01 
91.413   2.70000000e+01 
91.377   3.30000000e+01 
91.341   3.40000000e+01 
91.305   2.50000000e+01 
91.270   1.90000000e+01 
91.234   2.70000000e+01 
91.198   2.20000000e+01 
91.162   2.80000000e+01 
91.126   2.70000000e+01 
91.090   3.10000000e+01 
91.054   1.90000000e+01 
91.018   4.40000000e+01 
90.982   4.50000000e+01 
90.946   3.50000000e+01 
90.910   4.00000000e+01 
90.874   3.60000000e+01 
90.838   3.50000000e+01 
90.802   3.00000000e+01 
90.766   3.70000000e+01 
90.730   3.70000000e+01 
90.695   3.20000000e+01 
90.659   4.30000000e+01 
90.623   4.40000000e+01 
90.587   4.50000000e+01 
90.551   4.40000000e+01 
90.515   4.40000000e+01 
90.479   2.60000000e+01 
90.443   3.40000000e+01 
90.407   3.80000000e+01 
90.371   3.60000000e+01 
90.335   3.40000000e+01 
90.299   2.70000000e+01 
90.263   3.00000000e+01 
90.227   2.10000000e+01 
90.191   2.90000000e+01 
90.155   3.00000000e+01 
90.120   1.60000000e+01 
90.084   3.30000000e+01 
90.048   2.90000000e+01 
90.012   2.50000000e+01 
89.976   3.10000000e+01 
89.940   2.50000000e+01 
89.904   2.30000000e+01 
89.868   2.30000000e+01 
89.832   1.40000000e+01 
89.796   1.80000000e+01 
89.760   1.50000000e+01 
89.724   1.90000000e+01 
89.688   1.80000000e+01 
89.652   1.60000000e+01 
89.616   1.00000000e+01 
89.580   8.00000000e+00 
89.545   1.00000000e+01 
89.509   1.00000000e+01 
89.473   1.70000000e+01 
89.437   1.60000000e+01 
89.401   7.00000000e+00 
89.365   5.00000000e+00 
89.329   7.00000000e+00 
89.293   1.00000000e+01 
89.257   6.00000000e+00 
89.221   6.00000000e+00 
89.185   1.10000000e+01 
89.149   5.00000000e+00 
89.113   5.00000000e+00 
89.077   5.00000000e+00 
89.041   9.00000000e+00 
89.005   5.00000000e+00 
88.970   6.00000000e+00 
88.934   5.00000000e+00 
88.898   6.00000000e+00 
88.862   4.00000000e+00 
88.826   7.00000000e+00 
88.790   7.00000000e+00 
88.754   6.00000000e+00 
88.718   8.00000000e+00 
88.682   8.00000000e+00 
88.646   4.00000000e+00 
88.610   7.00000000e+00 
88.574   5.00000000e+00 
88.538   7.00000000e+00 
88.502   5.00000000e+00 
88.466   3.00000000e+00 
88.430   4.00000000e+00 
88.395   8.00000000e+00 
88.359   1.00000000e+00 
88.323   7.00000000e+00 
88.287   7.00000000e+00 
88.251   2.00000000e+00 
88.215   9.00000000e+00 
88.179   1.00000000e+00 
88.143   4.00000000e+00 
88.107   6.00000000e+00 
88.071   4.00000000e+00 
88.035   6.00000000e+00 
87.999   7.00000000e+00 
87.963   5.00000000e+00 
87.927   2.00000000e+00 
87.891   4.00000000e+00 
87.855   6.00000000e+00 
87.820   4.00000000e+00 
87.784   3.00000000e+00 
87.748   3.00000000e+00 
87.712   7.00000000e+00 
87.676   8.00000000e+00 
87.640   6.00000000e+00 
87.604   6.00000000e+00 
87.568   4.00000000e+00 
87.532   2.00000000e+00 
87.496   9.00000000e+00 
87.460   4.00000000e+00 
87.424   4.00000000e+00 
87.388   5.00000000e+00 
87.352   5.00000000e+00 
87.316   4.00000000e+00 
87.280   8.00000000e+00 
87.245   4.00000000e+00 
87.209   4.00000000e+00 
87.173   6.00000000e+00 
87.137   4.00000000e+00 
87.101   4.00000000e+00 
87.065   5.00000000e+00 
87.029   4.00000000e+00 
86.993   4.00000000e+00 
86.957   6.00000000e+00 
86.921   5.00000000e+00 
86.885   3.00000000e+00 
86.849   8.00000000e+00 
86.813   8.00000000e+00 
86.777   6.00000000e+00 
86.741   2.00000000e+00 
86.705   9.00000000e+00 
86.670   2.00000000e+00 
86.634   2.00000000e+00 
86.598   4.00000000e+00 
86.562   3.00000000e+00 
86.526   7.00000000e+00 
86.490   6.00000000e+00 
86.454   3.00000000e+00 
86.418   4.00000000e+00 
86.382   0.00000000e+00 
86.346   4.00000000e+00 
86.310   4.00000000e+00 
86.274   3.00000000e+00 
86.238   8.00000000e+00 
86.202   6.00000000e+00 
86.166   5.00000000e+00 
86.130   6.00000000e+00 
86.095   1.00000000e+01 
86.059   4.00000000e+00 
86.023   1.10000000e+01 

