EXPERIMENT FILE
Version = 2

[ Experiment Parameters ]
Experiment Description= <none> 
Number_of_Regions_in_Experiment= 1 

Original_File_name= C:\alexesca\data\0824Au_PowSupWU_4.xps 
Instrument= HP ESCA West
Date= 08-24-2012
Time=  16:51:25

[ Layer Parameters ]
Layer_Type= XPS

[ Region 1 Parameters ]
Region_Description = Au Dithered Scan Test              
BEcenter(eV) = 91.000000
BEwidth(eV) = 10.000000
BEstep(eV) = 0.035937
Dwell_Time(sec) = 1.000000
N_o_scans = 1  
N_o_Channels = 278  
Scan_mode = 0  (DITHERED)

[ L= 1 R= 1 ]
BEcenter= 91.000  
BEwidth= -9.955  
Excitation= 1486.600
Time_p_channel= 256.000 
Size= 278
95.977   1.10000000e+01 
95.941   1.50000000e+01 
95.905   8.00000000e+00 
95.870   1.00000000e+01 
95.834   7.00000000e+00 
95.798   9.00000000e+00 
95.762   2.20000000e+01 
95.726   1.10000000e+01 
95.690   1.80000000e+01 
95.654   1.40000000e+01 
95.618   1.30000000e+01 
95.582   1.30000000e+01 
95.546   1.50000000e+01 
95.510   1.60000000e+01 
95.474   1.40000000e+01 
95.438   1.20000000e+01 
95.402   1.40000000e+01 
95.366   1.10000000e+01 
95.330   1.50000000e+01 
95.295   1.60000000e+01 
95.259   2.30000000e+01 
95.223   2.40000000e+01 
95.187   2.40000000e+01 
95.151   1.90000000e+01 
95.115   1.80000000e+01 
95.079   2.80000000e+01 
95.043   2.10000000e+01 
95.007   1.90000000e+01 
94.971   1.90000000e+01 
94.935   1.90000000e+01 
94.899   2.60000000e+01 
94.863   2.10000000e+01 
94.827   2.20000000e+01 
94.791   2.10000000e+01 
94.755   2.70000000e+01 
94.720   2.80000000e+01 
94.684   3.70000000e+01 
94.648   3.40000000e+01 
94.612   3.10000000e+01 
94.576   2.80000000e+01 
94.540   2.50000000e+01 
94.504   3.80000000e+01 
94.468   3.20000000e+01 
94.432   2.60000000e+01 
94.396   2.50000000e+01 
94.360   3.40000000e+01 
94.324   2.70000000e+01 
94.288   3.20000000e+01 
94.252   3.00000000e+01 
94.216   4.40000000e+01 
94.180   2.70000000e+01 
94.145   2.70000000e+01 
94.109   3.40000000e+01 
94.073   2.70000000e+01 
94.037   4.30000000e+01 
94.001   3.10000000e+01 
93.965   2.40000000e+01 
93.929   2.30000000e+01 
93.893   4.00000000e+01 
93.857   3.00000000e+01 
93.821   2.20000000e+01 
93.785   3.10000000e+01 
93.749   1.90000000e+01 
93.713   2.50000000e+01 
93.677   1.80000000e+01 
93.641   2.30000000e+01 
93.605   2.60000000e+01 
93.570   1.80000000e+01 
93.534   1.80000000e+01 
93.498   2.60000000e+01 
93.462   1.50000000e+01 
93.426   2.00000000e+01 
93.390   2.00000000e+01 
93.354   1.00000000e+01 
93.318   1.90000000e+01 
93.282   1.10000000e+01 
93.246   1.50000000e+01 
93.210   7.00000000e+00 
93.174   1.20000000e+01 
93.138   9.00000000e+00 
93.102   1.10000000e+01 
93.066   9.00000000e+00 
93.030   1.30000000e+01 
92.995   9.00000000e+00 
92.959   5.00000000e+00 
92.923   1.30000000e+01 
92.887   1.40000000e+01 
92.851   1.20000000e+01 
92.815   1.30000000e+01 
92.779   1.10000000e+01 
92.743   1.10000000e+01 
92.707   1.60000000e+01 
92.671   1.10000000e+01 
92.635   8.00000000e+00 
92.599   6.00000000e+00 
92.563   1.30000000e+01 
92.527   1.40000000e+01 
92.491   1.60000000e+01 
92.455   1.30000000e+01 
92.420   9.00000000e+00 
92.384   1.30000000e+01 
92.348   1.00000000e+01 
92.312   1.50000000e+01 
92.276   1.10000000e+01 
92.240   1.30000000e+01 
92.204   1.10000000e+01 
92.168   6.00000000e+00 
92.132   1.80000000e+01 
92.096   1.50000000e+01 
92.060   1.30000000e+01 
92.024   1.70000000e+01 
91.988   1.70000000e+01 
91.952   1.00000000e+01 
91.916   1.40000000e+01 
91.880   1.70000000e+01 
91.845   1.50000000e+01 
91.809   8.00000000e+00 
91.773   2.60000000e+01 
91.737   7.00000000e+00 
91.701   1.50000000e+01 
91.665   1.40000000e+01 
91.629   2.10000000e+01 
91.593   1.20000000e+01 
91.557   1.70000000e+01 
91.521   2.70000000e+01 
91.485   2.50000000e+01 
91.449   2.60000000e+01 
91.413   2.50000000e+01 
91.377   1.80000000e+01 
91.341   2.60000000e+01 
91.305   3.50000000e+01 
91.270   3.10000000e+01 
91.234   1.70000000e+01 
91.198   2.10000000e+01 
91.162   2.70000000e+01 
91.126   3.40000000e+01 
91.090   3.00000000e+01 
91.054   2.80000000e+01 
91.018   3.30000000e+01 
90.982   3.50000000e+01 
90.946   3.00000000e+01 
90.910   3.10000000e+01 
90.874   2.30000000e+01 
90.838   3.90000000e+01 
90.802   4.10000000e+01 
90.766   3.60000000e+01 
90.730   2.60000000e+01 
90.695   2.70000000e+01 
90.659   3.50000000e+01 
90.623   3.90000000e+01 
90.587   3.40000000e+01 
90.551   4.00000000e+01 
90.515   2.60000000e+01 
90.479   4.00000000e+01 
90.443   4.10000000e+01 
90.407   3.30000000e+01 
90.371   3.50000000e+01 
90.335   3.80000000e+01 
90.299   2.00000000e+01 
90.263   2.20000000e+01 
90.227   3.30000000e+01 
90.191   3.30000000e+01 
90.155   2.90000000e+01 
90.120   3.60000000e+01 
90.084   1.90000000e+01 
90.048   1.50000000e+01 
90.012   1.30000000e+01 
89.976   2.10000000e+01 
89.940   2.30000000e+01 
89.904   2.70000000e+01 
89.868   2.40000000e+01 
89.832   1.10000000e+01 
89.796   1.00000000e+01 
89.760   1.80000000e+01 
89.724   1.20000000e+01 
89.688   1.10000000e+01 
89.652   1.40000000e+01 
89.616   1.00000000e+01 
89.580   1.00000000e+01 
89.545   9.00000000e+00 
89.509   1.00000000e+01 
89.473   1.60000000e+01 
89.437   9.00000000e+00 
89.401   1.50000000e+01 
89.365   7.00000000e+00 
89.329   1.20000000e+01 
89.293   1.10000000e+01 
89.257   5.00000000e+00 
89.221   8.00000000e+00 
89.185   5.00000000e+00 
89.149   1.10000000e+01 
89.113   7.00000000e+00 
89.077   5.00000000e+00 
89.041   1.10000000e+01 
89.005   7.00000000e+00 
88.970   4.00000000e+00 
88.934   4.00000000e+00 
88.898   6.00000000e+00 
88.862   4.00000000e+00 
88.826   1.10000000e+01 
88.790   7.00000000e+00 
88.754   5.00000000e+00 
88.718   7.00000000e+00 
88.682   1.10000000e+01 
88.646   4.00000000e+00 
88.610   1.00000000e+01 
88.574   5.00000000e+00 
88.538   6.00000000e+00 
88.502   4.00000000e+00 
88.466   8.00000000e+00 
88.430   8.00000000e+00 
88.395   6.00000000e+00 
88.359   4.00000000e+00 
88.323   6.00000000e+00 
88.287   5.00000000e+00 
88.251   5.00000000e+00 
88.215   5.00000000e+00 
88.179   4.00000000e+00 
88.143   7.00000000e+00 
88.107   4.00000000e+00 
88.071   6.00000000e+00 
88.035   5.00000000e+00 
87.999   2.00000000e+00 
87.963   8.00000000e+00 
87.927   7.00000000e+00 
87.891   5.00000000e+00 
87.855   4.00000000e+00 
87.820   5.00000000e+00 
87.784   4.00000000e+00 
87.748   4.00000000e+00 
87.712   3.00000000e+00 
87.676   2.00000000e+00 
87.640   5.00000000e+00 
87.604   4.00000000e+00 
87.568   6.00000000e+00 
87.532   5.00000000e+00 
87.496   6.00000000e+00 
87.460   6.00000000e+00 
87.424   3.00000000e+00 
87.388   2.00000000e+00 
87.352   5.00000000e+00 
87.316   4.00000000e+00 
87.280   3.00000000e+00 
87.245   2.00000000e+00 
87.209   5.00000000e+00 
87.173   7.00000000e+00 
87.137   4.00000000e+00 
87.101   5.00000000e+00 
87.065   5.00000000e+00 
87.029   4.00000000e+00 
86.993   1.00000000e+00 
86.957   3.00000000e+00 
86.921   6.00000000e+00 
86.885   5.00000000e+00 
86.849   6.00000000e+00 
86.813   3.00000000e+00 
86.777   5.00000000e+00 
86.741   4.00000000e+00 
86.705   6.00000000e+00 
86.670   3.00000000e+00 
86.634   7.00000000e+00 
86.598   2.00000000e+00 
86.562   7.00000000e+00 
86.526   5.00000000e+00 
86.490   2.00000000e+00 
86.454   9.00000000e+00 
86.418   9.00000000e+00 
86.382   4.00000000e+00 
86.346   5.00000000e+00 
86.310   5.00000000e+00 
86.274   3.00000000e+00 
86.238   3.00000000e+00 
86.202   3.00000000e+00 
86.166   3.00000000e+00 
86.130   5.00000000e+00 
86.095   4.00000000e+00 
86.059   4.00000000e+00 
86.023   3.00000000e+00 

