EXPERIMENT FILE
Version = 2

[ Experiment Parameters ]
Experiment Description= <none> 
Number_of_Regions_in_Experiment= 1 

Original_File_name= C:\alexesca\data\0201Er132eV.xps 
Instrument= HP ESCA West
Date= 02-01-2013
Time=  16:43:51

[ Layer Parameters ]
Layer_Type= XPS

[ Region 1 Parameters ]
Region_Description = Er399                              
BEcenter(eV) = 132.000000
BEwidth(eV) = 12.000000
BEstep(eV) = 0.035938
Dwell_Time(sec) = 1.000000
N_o_scans = 1  
N_o_Channels = 334  
Scan_mode = 0  (DITHERED)

[ L= 1 R= 1 ]
BEcenter= 132.000 
BEwidth= -11.967 
Excitation= 1486.600
Time_p_channel= 256.000 
Size= 334
137.984  6.28000000e+02 
137.948  6.08000000e+02 
137.912  6.19000000e+02 
137.876  6.52000000e+02 
137.840  6.23000000e+02 
137.804  5.80000000e+02 
137.768  6.12000000e+02 
137.732  6.54000000e+02 
137.696  6.65000000e+02 
137.660  6.29000000e+02 
137.624  6.12000000e+02 
137.588  6.32000000e+02 
137.552  6.46000000e+02 
137.516  6.23000000e+02 
137.480  6.40000000e+02 
137.445  6.21000000e+02 
137.409  6.24000000e+02 
137.373  6.24000000e+02 
137.337  6.56000000e+02 
137.301  6.44000000e+02 
137.265  6.25000000e+02 
137.229  6.32000000e+02 
137.193  6.19000000e+02 
137.157  6.60000000e+02 
137.121  6.15000000e+02 
137.085  6.76000000e+02 
137.049  6.30000000e+02 
137.013  6.40000000e+02 
136.977  6.03000000e+02 
136.941  6.32000000e+02 
136.905  6.24000000e+02 
136.870  5.85000000e+02 
136.834  6.36000000e+02 
136.798  6.47000000e+02 
136.762  6.08000000e+02 
136.726  6.26000000e+02 
136.690  6.63000000e+02 
136.654  6.86000000e+02 
136.618  6.52000000e+02 
136.582  6.51000000e+02 
136.546  6.10000000e+02 
136.510  6.45000000e+02 
136.474  6.84000000e+02 
136.438  6.26000000e+02 
136.402  6.66000000e+02 
136.366  6.13000000e+02 
136.330  6.04000000e+02 
136.295  6.62000000e+02 
136.259  6.34000000e+02 
136.223  6.33000000e+02 
136.187  6.72000000e+02 
136.151  6.67000000e+02 
136.115  6.58000000e+02 
136.079  6.51000000e+02 
136.043  6.33000000e+02 
136.007  6.71000000e+02 
135.971  6.69000000e+02 
135.935  6.07000000e+02 
135.899  6.35000000e+02 
135.863  6.54000000e+02 
135.827  6.20000000e+02 
135.791  6.50000000e+02 
135.755  6.73000000e+02 
135.720  6.72000000e+02 
135.684  6.53000000e+02 
135.648  6.68000000e+02 
135.612  6.42000000e+02 
135.576  6.95000000e+02 
135.540  6.85000000e+02 
135.504  6.79000000e+02 
135.468  6.76000000e+02 
135.432  6.75000000e+02 
135.396  6.93000000e+02 
135.360  6.46000000e+02 
135.324  6.67000000e+02 
135.288  6.94000000e+02 
135.252  6.56000000e+02 
135.216  6.65000000e+02 
135.180  6.73000000e+02 
135.145  6.59000000e+02 
135.109  6.33000000e+02 
135.073  6.78000000e+02 
135.037  6.76000000e+02 
135.001  6.33000000e+02 
134.965  6.52000000e+02 
134.929  6.08000000e+02 
134.893  7.08000000e+02 
134.857  6.38000000e+02 
134.821  7.03000000e+02 
134.785  6.68000000e+02 
134.749  6.37000000e+02 
134.713  6.92000000e+02 
134.677  6.22000000e+02 
134.641  6.62000000e+02 
134.605  6.57000000e+02 
134.570  6.74000000e+02 
134.534  6.87000000e+02 
134.498  6.70000000e+02 
134.462  6.68000000e+02 
134.426  6.98000000e+02 
134.390  6.43000000e+02 
134.354  6.67000000e+02 
134.318  6.19000000e+02 
134.282  6.45000000e+02 
134.246  7.01000000e+02 
134.210  6.75000000e+02 
134.174  6.82000000e+02 
134.138  6.82000000e+02 
134.102  6.64000000e+02 
134.066  6.77000000e+02 
134.030  6.53000000e+02 
133.995  6.81000000e+02 
133.959  5.81000000e+02 
133.923  6.52000000e+02 
133.887  6.71000000e+02 
133.851  6.74000000e+02 
133.815  6.16000000e+02 
133.779  6.70000000e+02 
133.743  6.69000000e+02 
133.707  6.68000000e+02 
133.671  6.30000000e+02 
133.635  6.52000000e+02 
133.599  6.76000000e+02 
133.563  6.62000000e+02 
133.527  6.81000000e+02 
133.491  6.48000000e+02 
133.455  6.33000000e+02 
133.420  6.51000000e+02 
133.384  6.22000000e+02 
133.348  6.31000000e+02 
133.312  6.67000000e+02 
133.276  6.47000000e+02 
133.240  6.44000000e+02 
133.204  6.69000000e+02 
133.168  6.60000000e+02 
133.132  6.57000000e+02 
133.096  6.31000000e+02 
133.060  6.79000000e+02 
133.024  7.09000000e+02 
132.988  6.94000000e+02 
132.952  6.79000000e+02 
132.916  6.22000000e+02 
132.880  6.55000000e+02 
132.845  6.43000000e+02 
132.809  6.33000000e+02 
132.773  6.15000000e+02 
132.737  6.90000000e+02 
132.701  6.97000000e+02 
132.665  6.56000000e+02 
132.629  6.93000000e+02 
132.593  6.71000000e+02 
132.557  6.56000000e+02 
132.521  6.77000000e+02 
132.485  6.74000000e+02 
132.449  6.53000000e+02 
132.413  6.84000000e+02 
132.377  6.87000000e+02 
132.341  7.02000000e+02 
132.305  7.00000000e+02 
132.270  6.64000000e+02 
132.234  6.69000000e+02 
132.198  6.93000000e+02 
132.162  6.74000000e+02 
132.126  6.75000000e+02 
132.090  6.81000000e+02 
132.054  6.75000000e+02 
132.018  6.75000000e+02 
131.982  6.48000000e+02 
131.946  7.07000000e+02 
131.910  6.87000000e+02 
131.874  6.84000000e+02 
131.838  6.48000000e+02 
131.802  7.15000000e+02 
131.766  7.14000000e+02 
131.730  6.69000000e+02 
131.695  7.43000000e+02 
131.659  6.63000000e+02 
131.623  6.99000000e+02 
131.587  7.23000000e+02 
131.551  6.98000000e+02 
131.515  6.84000000e+02 
131.479  6.82000000e+02 
131.443  6.64000000e+02 
131.407  6.45000000e+02 
131.371  6.51000000e+02 
131.335  7.32000000e+02 
131.299  6.95000000e+02 
131.263  6.62000000e+02 
131.227  6.83000000e+02 
131.191  6.85000000e+02 
131.155  6.51000000e+02 
131.120  6.65000000e+02 
131.084  6.27000000e+02 
131.048  6.49000000e+02 
131.012  6.37000000e+02 
130.976  6.79000000e+02 
130.940  6.53000000e+02 
130.904  6.31000000e+02 
130.868  6.35000000e+02 
130.832  6.49000000e+02 
130.796  6.18000000e+02 
130.760  6.73000000e+02 
130.724  6.27000000e+02 
130.688  6.82000000e+02 
130.652  6.09000000e+02 
130.616  6.65000000e+02 
130.580  6.68000000e+02 
130.545  6.42000000e+02 
130.509  6.30000000e+02 
130.473  5.86000000e+02 
130.437  6.50000000e+02 
130.401  5.76000000e+02 
130.365  6.64000000e+02 
130.329  6.49000000e+02 
130.293  6.45000000e+02 
130.257  6.21000000e+02 
130.221  5.94000000e+02 
130.185  6.41000000e+02 
130.149  6.07000000e+02 
130.113  6.26000000e+02 
130.077  6.42000000e+02 
130.041  6.43000000e+02 
130.005  6.02000000e+02 
129.970  6.48000000e+02 
129.934  6.29000000e+02 
129.898  6.70000000e+02 
129.862  5.78000000e+02 
129.826  5.93000000e+02 
129.790  6.18000000e+02 
129.754  6.15000000e+02 
129.718  5.67000000e+02 
129.682  6.35000000e+02 
129.646  6.25000000e+02 
129.610  5.65000000e+02 
129.574  5.96000000e+02 
129.538  6.21000000e+02 
129.502  6.01000000e+02 
129.466  5.68000000e+02 
129.430  5.63000000e+02 
129.395  6.32000000e+02 
129.359  6.16000000e+02 
129.323  5.77000000e+02 
129.287  6.06000000e+02 
129.251  5.97000000e+02 
129.215  5.66000000e+02 
129.179  5.87000000e+02 
129.143  5.79000000e+02 
129.107  6.16000000e+02 
129.071  5.40000000e+02 
129.035  5.70000000e+02 
128.999  6.05000000e+02 
128.963  5.96000000e+02 
128.927  5.63000000e+02 
128.891  5.29000000e+02 
128.855  5.96000000e+02 
128.820  6.11000000e+02 
128.784  5.87000000e+02 
128.748  5.83000000e+02 
128.712  5.66000000e+02 
128.676  5.77000000e+02 
128.640  5.22000000e+02 
128.604  5.70000000e+02 
128.568  5.78000000e+02 
128.532  5.70000000e+02 
128.496  5.36000000e+02 
128.460  5.35000000e+02 
128.424  6.06000000e+02 
128.388  5.84000000e+02 
128.352  5.64000000e+02 
128.316  5.54000000e+02 
128.280  5.57000000e+02 
128.245  6.05000000e+02 
128.209  5.49000000e+02 
128.173  5.66000000e+02 
128.137  5.71000000e+02 
128.101  5.36000000e+02 
128.065  5.05000000e+02 
128.029  5.60000000e+02 
127.993  5.58000000e+02 
127.957  5.75000000e+02 
127.921  5.50000000e+02 
127.885  5.16000000e+02 
127.849  5.95000000e+02 
127.813  5.60000000e+02 
127.777  5.70000000e+02 
127.741  5.78000000e+02 
127.705  5.36000000e+02 
127.670  5.36000000e+02 
127.634  5.26000000e+02 
127.598  5.80000000e+02 
127.562  5.51000000e+02 
127.526  5.39000000e+02 
127.490  5.45000000e+02 
127.454  5.84000000e+02 
127.418  5.60000000e+02 
127.382  5.81000000e+02 
127.346  5.77000000e+02 
127.310  5.74000000e+02 
127.274  5.36000000e+02 
127.238  5.66000000e+02 
127.202  5.25000000e+02 
127.166  5.58000000e+02 
127.130  5.20000000e+02 
127.095  5.79000000e+02 
127.059  5.35000000e+02 
127.023  5.65000000e+02 
126.987  5.37000000e+02 
126.951  5.99000000e+02 
126.915  5.11000000e+02 
126.879  5.85000000e+02 
126.843  5.77000000e+02 
126.807  5.67000000e+02 
126.771  5.39000000e+02 
126.735  5.29000000e+02 
126.699  5.53000000e+02 
126.663  5.12000000e+02 
126.627  5.36000000e+02 
126.591  5.11000000e+02 
126.555  5.60000000e+02 
126.520  5.12000000e+02 
126.484  5.56000000e+02 
126.448  5.55000000e+02 
126.412  5.61000000e+02 
126.376  5.84000000e+02 
126.340  5.57000000e+02 
126.304  5.36000000e+02 
126.268  5.92000000e+02 
126.232  5.27000000e+02 
126.196  5.32000000e+02 
126.160  5.62000000e+02 
126.124  5.49000000e+02 
126.088  5.25000000e+02 
126.052  5.42000000e+02 
126.016  5.11000000e+02 

