EXPERIMENT FILE
Version = 2

[ Experiment Parameters ]
Experiment Description= <none> 
Number_of_Regions_in_Experiment= 1 

Original_File_name= C:\alexesca\data\0204Er400B.xps 
Instrument= HP ESCA West
Date= 02-04-2013
Time=  16:08:18

[ Layer Parameters ]
Layer_Type= XPS

[ Region 1 Parameters ]
Region_Description = Er400 center 37.80eV               
BEcenter(eV) = 37.800000
BEwidth(eV) = 12.000000
BEstep(eV) = 0.035938
Dwell_Time(sec) = 1.000000
N_o_scans = 1  
N_o_Channels = 334  
Scan_mode = 0  (DITHERED)

[ L= 1 R= 1 ]
BEcenter= 37.800  
BEwidth= -11.967 
Excitation= 1486.600
Time_p_channel= 256.000 
Size= 334
43.784   1.66000000e+02 
43.748   1.45000000e+02 
43.712   1.48000000e+02 
43.676   1.37000000e+02 
43.640   1.67000000e+02 
43.604   1.61000000e+02 
43.568   1.41000000e+02 
43.532   1.71000000e+02 
43.496   1.44000000e+02 
43.460   1.42000000e+02 
43.424   1.48000000e+02 
43.388   1.53000000e+02 
43.352   1.59000000e+02 
43.316   1.60000000e+02 
43.280   1.47000000e+02 
43.245   1.38000000e+02 
43.209   1.47000000e+02 
43.173   1.60000000e+02 
43.137   1.41000000e+02 
43.101   1.32000000e+02 
43.065   1.44000000e+02 
43.029   1.30000000e+02 
42.993   1.45000000e+02 
42.957   1.49000000e+02 
42.921   1.52000000e+02 
42.885   1.34000000e+02 
42.849   1.69000000e+02 
42.813   1.31000000e+02 
42.777   1.29000000e+02 
42.741   1.50000000e+02 
42.705   1.37000000e+02 
42.670   1.20000000e+02 
42.634   1.45000000e+02 
42.598   1.40000000e+02 
42.562   1.37000000e+02 
42.526   1.36000000e+02 
42.490   1.46000000e+02 
42.454   1.22000000e+02 
42.418   1.45000000e+02 
42.382   1.09000000e+02 
42.346   1.31000000e+02 
42.310   1.27000000e+02 
42.274   1.30000000e+02 
42.238   1.36000000e+02 
42.202   1.44000000e+02 
42.166   1.23000000e+02 
42.130   1.20000000e+02 
42.095   1.05000000e+02 
42.059   1.09000000e+02 
42.023   1.32000000e+02 
41.987   1.17000000e+02 
41.951   1.38000000e+02 
41.915   1.11000000e+02 
41.879   1.46000000e+02 
41.843   1.13000000e+02 
41.807   1.23000000e+02 
41.771   1.49000000e+02 
41.735   1.09000000e+02 
41.699   1.09000000e+02 
41.663   1.23000000e+02 
41.627   8.00000000e+01 
41.591   1.18000000e+02 
41.555   1.03000000e+02 
41.520   1.16000000e+02 
41.484   1.32000000e+02 
41.448   1.14000000e+02 
41.412   1.20000000e+02 
41.376   1.08000000e+02 
41.340   1.06000000e+02 
41.304   1.06000000e+02 
41.268   1.03000000e+02 
41.232   1.16000000e+02 
41.196   1.24000000e+02 
41.160   1.14000000e+02 
41.124   1.06000000e+02 
41.088   1.04000000e+02 
41.052   1.06000000e+02 
41.016   1.02000000e+02 
40.980   1.03000000e+02 
40.945   1.04000000e+02 
40.909   1.04000000e+02 
40.873   8.50000000e+01 
40.837   1.01000000e+02 
40.801   1.14000000e+02 
40.765   9.20000000e+01 
40.729   1.04000000e+02 
40.693   8.40000000e+01 
40.657   9.90000000e+01 
40.621   1.12000000e+02 
40.585   1.11000000e+02 
40.549   1.13000000e+02 
40.513   9.10000000e+01 
40.477   1.07000000e+02 
40.441   1.01000000e+02 
40.405   9.90000000e+01 
40.370   7.40000000e+01 
40.334   9.70000000e+01 
40.298   8.50000000e+01 
40.262   9.20000000e+01 
40.226   9.30000000e+01 
40.190   8.90000000e+01 
40.154   7.30000000e+01 
40.118   8.70000000e+01 
40.082   8.10000000e+01 
40.046   1.02000000e+02 
40.010   1.00000000e+02 
39.974   8.50000000e+01 
39.938   8.40000000e+01 
39.902   8.30000000e+01 
39.866   8.70000000e+01 
39.830   9.70000000e+01 
39.795   9.80000000e+01 
39.759   8.40000000e+01 
39.723   8.50000000e+01 
39.687   7.30000000e+01 
39.651   7.10000000e+01 
39.615   8.30000000e+01 
39.579   8.70000000e+01 
39.543   8.60000000e+01 
39.507   1.00000000e+02 
39.471   7.00000000e+01 
39.435   8.30000000e+01 
39.399   6.90000000e+01 
39.363   9.90000000e+01 
39.327   7.20000000e+01 
39.291   9.00000000e+01 
39.255   8.60000000e+01 
39.220   6.70000000e+01 
39.184   7.20000000e+01 
39.148   7.10000000e+01 
39.112   7.30000000e+01 
39.076   7.90000000e+01 
39.040   6.60000000e+01 
39.004   6.70000000e+01 
38.968   6.00000000e+01 
38.932   7.50000000e+01 
38.896   7.30000000e+01 
38.860   5.40000000e+01 
38.824   7.50000000e+01 
38.788   6.50000000e+01 
38.752   6.20000000e+01 
38.716   6.30000000e+01 
38.680   6.30000000e+01 
38.645   6.00000000e+01 
38.609   6.50000000e+01 
38.573   7.00000000e+01 
38.537   7.40000000e+01 
38.501   5.60000000e+01 
38.465   7.00000000e+01 
38.429   6.40000000e+01 
38.393   6.60000000e+01 
38.357   4.80000000e+01 
38.321   5.00000000e+01 
38.285   7.10000000e+01 
38.249   5.60000000e+01 
38.213   6.80000000e+01 
38.177   6.20000000e+01 
38.141   5.40000000e+01 
38.105   4.30000000e+01 
38.070   6.50000000e+01 
38.034   6.70000000e+01 
37.998   6.00000000e+01 
37.962   4.80000000e+01 
37.926   4.60000000e+01 
37.890   5.30000000e+01 
37.854   4.70000000e+01 
37.818   4.40000000e+01 
37.782   4.60000000e+01 
37.746   5.60000000e+01 
37.710   6.50000000e+01 
37.674   5.00000000e+01 
37.638   4.50000000e+01 
37.602   5.30000000e+01 
37.566   4.70000000e+01 
37.530   5.20000000e+01 
37.495   4.70000000e+01 
37.459   5.50000000e+01 
37.423   5.40000000e+01 
37.387   4.70000000e+01 
37.351   4.40000000e+01 
37.315   5.20000000e+01 
37.279   4.80000000e+01 
37.243   3.70000000e+01 
37.207   4.90000000e+01 
37.171   4.20000000e+01 
37.135   4.50000000e+01 
37.099   3.40000000e+01 
37.063   3.30000000e+01 
37.027   4.40000000e+01 
36.991   4.00000000e+01 
36.955   3.50000000e+01 
36.920   4.30000000e+01 
36.884   4.40000000e+01 
36.848   5.00000000e+01 
36.812   3.20000000e+01 
36.776   4.20000000e+01 
36.740   4.00000000e+01 
36.704   3.20000000e+01 
36.668   4.20000000e+01 
36.632   3.70000000e+01 
36.596   3.00000000e+01 
36.560   3.60000000e+01 
36.524   3.70000000e+01 
36.488   3.40000000e+01 
36.452   4.40000000e+01 
36.416   3.90000000e+01 
36.380   3.60000000e+01 
36.345   3.60000000e+01 
36.309   4.70000000e+01 
36.273   3.30000000e+01 
36.237   3.70000000e+01 
36.201   4.50000000e+01 
36.165   3.40000000e+01 
36.129   3.00000000e+01 
36.093   4.00000000e+01 
36.057   3.60000000e+01 
36.021   4.10000000e+01 
35.985   3.40000000e+01 
35.949   3.20000000e+01 
35.913   3.50000000e+01 
35.877   3.00000000e+01 
35.841   3.30000000e+01 
35.805   3.00000000e+01 
35.770   3.40000000e+01 
35.734   3.20000000e+01 
35.698   4.60000000e+01 
35.662   3.20000000e+01 
35.626   2.80000000e+01 
35.590   4.40000000e+01 
35.554   3.60000000e+01 
35.518   4.50000000e+01 
35.482   4.10000000e+01 
35.446   3.80000000e+01 
35.410   3.30000000e+01 
35.374   3.00000000e+01 
35.338   3.00000000e+01 
35.302   4.10000000e+01 
35.266   4.20000000e+01 
35.230   3.60000000e+01 
35.195   3.90000000e+01 
35.159   3.30000000e+01 
35.123   4.60000000e+01 
35.087   4.70000000e+01 
35.051   4.00000000e+01 
35.015   3.80000000e+01 
34.979   2.40000000e+01 
34.943   4.60000000e+01 
34.907   4.30000000e+01 
34.871   3.70000000e+01 
34.835   4.00000000e+01 
34.799   4.60000000e+01 
34.763   5.00000000e+01 
34.727   3.80000000e+01 
34.691   4.40000000e+01 
34.655   4.10000000e+01 
34.620   2.60000000e+01 
34.584   4.40000000e+01 
34.548   4.10000000e+01 
34.512   3.40000000e+01 
34.476   3.30000000e+01 
34.440   4.80000000e+01 
34.404   2.80000000e+01 
34.368   4.10000000e+01 
34.332   3.80000000e+01 
34.296   4.10000000e+01 
34.260   3.20000000e+01 
34.224   4.20000000e+01 
34.188   3.80000000e+01 
34.152   4.40000000e+01 
34.116   4.50000000e+01 
34.080   4.60000000e+01 
34.045   3.10000000e+01 
34.009   5.20000000e+01 
33.973   4.60000000e+01 
33.937   4.50000000e+01 
33.901   3.70000000e+01 
33.865   4.10000000e+01 
33.829   3.90000000e+01 
33.793   3.50000000e+01 
33.757   3.40000000e+01 
33.721   4.10000000e+01 
33.685   2.70000000e+01 
33.649   3.40000000e+01 
33.613   4.30000000e+01 
33.577   2.20000000e+01 
33.541   3.20000000e+01 
33.505   3.00000000e+01 
33.470   4.60000000e+01 
33.434   3.70000000e+01 
33.398   3.40000000e+01 
33.362   2.90000000e+01 
33.326   3.60000000e+01 
33.290   2.20000000e+01 
33.254   3.90000000e+01 
33.218   3.40000000e+01 
33.182   2.40000000e+01 
33.146   3.50000000e+01 
33.110   3.20000000e+01 
33.074   3.80000000e+01 
33.038   3.80000000e+01 
33.002   3.70000000e+01 
32.966   2.90000000e+01 
32.930   3.40000000e+01 
32.895   2.50000000e+01 
32.859   4.10000000e+01 
32.823   4.20000000e+01 
32.787   3.50000000e+01 
32.751   3.10000000e+01 
32.715   3.20000000e+01 
32.679   3.70000000e+01 
32.643   3.80000000e+01 
32.607   3.80000000e+01 
32.571   4.90000000e+01 
32.535   3.60000000e+01 
32.499   2.70000000e+01 
32.463   4.60000000e+01 
32.427   2.10000000e+01 
32.391   3.10000000e+01 
32.355   3.30000000e+01 
32.320   3.20000000e+01 
32.284   3.90000000e+01 
32.248   3.50000000e+01 
32.212   3.40000000e+01 
32.176   3.60000000e+01 
32.140   3.80000000e+01 
32.104   3.80000000e+01 
32.068   3.30000000e+01 
32.032   2.90000000e+01 
31.996   3.10000000e+01 
31.960   3.10000000e+01 
31.924   2.90000000e+01 
31.888   2.60000000e+01 
31.852   3.00000000e+01 
31.816   2.60000000e+01 

