EXPERIMENT FILE
Version = 2

[ Experiment Parameters ]
Experiment Description= <none> 
Number_of_Regions_in_Experiment= 1 

Original_File_name= C:\alexesca\data\0818_test2.xps 
Instrument= HP ESCA West
Date= 08-18-2012
Time=  08:57:00

[ Layer Parameters ]
Layer_Type= XPS

[ Region 1 Parameters ]
Region_Description = Au quick Dithered Scan Test        
BEcenter(eV) = 91.000000
BEwidth(eV) = 10.000000
BEstep(eV) = 0.035937
Dwell_Time(sec) = 0.100000
N_o_scans = 1  
N_o_Channels = 278  
Scan_mode = 0  (DITHERED)

[ L= 1 R= 1 ]
BEcenter= 91.000  
BEwidth= -9.955  
Excitation= 1486.600
Time_p_channel= 25.600  
Size= 278
95.977   1.66458900e+07 
95.941   1.66458900e+07 
95.905   1.66458900e+07 
95.870   1.66458900e+07 
95.834   1.66458900e+07 
95.798   1.66458900e+07 
95.762   1.66458900e+07 
95.726   1.66458900e+07 
95.690   1.66458900e+07 
95.654   1.66458900e+07 
95.618   1.66458900e+07 
95.582   1.66458900e+07 
95.546   1.66458900e+07 
95.510   1.66458900e+07 
95.474   1.66458900e+07 
95.438   1.66458900e+07 
95.402   1.66458900e+07 
95.366   1.66458900e+07 
95.330   1.66458900e+07 
95.295   1.66458900e+07 
95.259   1.66458900e+07 
95.223   1.66458900e+07 
95.187   1.66458900e+07 
95.151   1.66458900e+07 
95.115   1.66458900e+07 
95.079   1.66458900e+07 
95.043   1.66458900e+07 
95.007   1.66458900e+07 
94.971   1.66458900e+07 
94.935   1.66458900e+07 
94.899   1.66458900e+07 
94.863   1.66458900e+07 
94.827   1.66458900e+07 
94.791   1.66458900e+07 
94.755   1.66458900e+07 
94.720   1.66458900e+07 
94.684   1.66458900e+07 
94.648   1.66458900e+07 
94.612   1.66458900e+07 
94.576   1.66458900e+07 
94.540   1.66458900e+07 
94.504   1.66458900e+07 
94.468   1.66458900e+07 
94.432   1.66458900e+07 
94.396   1.66458900e+07 
94.360   1.66458900e+07 
94.324   1.66458900e+07 
94.288   1.66458900e+07 
94.252   1.66458900e+07 
94.216   1.66458900e+07 
94.180   1.66458900e+07 
94.145   1.66458900e+07 
94.109   1.66458900e+07 
94.073   1.66458900e+07 
94.037   1.66458900e+07 
94.001   1.66458900e+07 
93.965   1.66458900e+07 
93.929   1.66458900e+07 
93.893   1.66458900e+07 
93.857   1.66458900e+07 
93.821   1.66458900e+07 
93.785   1.66458900e+07 
93.749   1.66458900e+07 
93.713   1.66458900e+07 
93.677   1.66458900e+07 
93.641   1.66458900e+07 
93.605   1.66458900e+07 
93.570   1.66458900e+07 
93.534   1.66458900e+07 
93.498   1.66458900e+07 
93.462   1.66458900e+07 
93.426   1.66458900e+07 
93.390   1.66458900e+07 
93.354   1.66458900e+07 
93.318   1.66458900e+07 
93.282   1.66458900e+07 
93.246   1.66458900e+07 
93.210   1.66458900e+07 
93.174   1.66458900e+07 
93.138   1.66458900e+07 
93.102   1.66458900e+07 
93.066   1.66458900e+07 
93.030   1.66458900e+07 
92.995   1.66458900e+07 
92.959   1.66458900e+07 
92.923   1.66458900e+07 
92.887   1.66458900e+07 
92.851   1.66458900e+07 
92.815   1.66458900e+07 
92.779   1.66458900e+07 
92.743   1.66458900e+07 
92.707   1.66458900e+07 
92.671   1.66458900e+07 
92.635   1.66458900e+07 
92.599   1.66458900e+07 
92.563   1.66458900e+07 
92.527   1.66458900e+07 
92.491   1.66458900e+07 
92.455   1.66458900e+07 
92.420   1.66458900e+07 
92.384   1.66458900e+07 
92.348   1.66458900e+07 
92.312   1.66458900e+07 
92.276   1.66458900e+07 
92.240   1.66458900e+07 
92.204   1.66458900e+07 
92.168   1.66458900e+07 
92.132   1.66458900e+07 
92.096   1.66458900e+07 
92.060   1.66458900e+07 
92.024   1.66458900e+07 
91.988   1.66458900e+07 
91.952   1.66458900e+07 
91.916   1.66458900e+07 
91.880   1.66458900e+07 
91.845   1.66458900e+07 
91.809   1.66458900e+07 
91.773   1.66458900e+07 
91.737   1.66458900e+07 
91.701   1.66458900e+07 
91.665   1.66458900e+07 
91.629   1.66458900e+07 
91.593   1.66458900e+07 
91.557   1.66458900e+07 
91.521   1.66458900e+07 
91.485   1.66458900e+07 
91.449   1.66458900e+07 
91.413   1.66458900e+07 
91.377   1.66458900e+07 
91.341   1.66458900e+07 
91.305   1.66458900e+07 
91.270   1.66458900e+07 
91.234   1.66458900e+07 
91.198   1.66458900e+07 
91.162   1.66458900e+07 
91.126   1.66458900e+07 
91.090   1.66458900e+07 
91.054   1.66458900e+07 
91.018   1.66458900e+07 
90.982   1.66458900e+07 
90.946   1.66458900e+07 
90.910   1.66458900e+07 
90.874   1.66458900e+07 
90.838   1.66458900e+07 
90.802   1.66458900e+07 
90.766   1.66458900e+07 
90.730   1.66458900e+07 
90.695   1.66458900e+07 
90.659   1.66458900e+07 
90.623   1.66458900e+07 
90.587   1.66458900e+07 
90.551   1.66458900e+07 
90.515   1.66458900e+07 
90.479   1.66458900e+07 
90.443   1.66458900e+07 
90.407   1.66458900e+07 
90.371   1.66458900e+07 
90.335   1.66458900e+07 
90.299   1.66458900e+07 
90.263   1.66458900e+07 
90.227   1.66458900e+07 
90.191   1.66458900e+07 
90.155   1.66458900e+07 
90.120   1.66458900e+07 
90.084   1.66458900e+07 
90.048   1.66458900e+07 
90.012   1.66458900e+07 
89.976   1.66458900e+07 
89.940   1.66458900e+07 
89.904   1.66458900e+07 
89.868   1.66458900e+07 
89.832   1.66458900e+07 
89.796   1.66458900e+07 
89.760   1.66458900e+07 
89.724   1.66458900e+07 
89.688   1.66458900e+07 
89.652   1.66458900e+07 
89.616   1.66458900e+07 
89.580   1.66458900e+07 
89.545   1.66458900e+07 
89.509   1.66458900e+07 
89.473   1.66458900e+07 
89.437   1.66458900e+07 
89.401   1.66458900e+07 
89.365   1.66458900e+07 
89.329   1.66458900e+07 
89.293   1.66458900e+07 
89.257   1.66458900e+07 
89.221   1.66458900e+07 
89.185   1.66458900e+07 
89.149   1.66458900e+07 
89.113   1.66458900e+07 
89.077   1.66458900e+07 
89.041   1.66458900e+07 
89.005   1.66458900e+07 
88.970   1.66458900e+07 
88.934   1.66458900e+07 
88.898   1.66458900e+07 
88.862   1.66458900e+07 
88.826   1.66458900e+07 
88.790   1.66458900e+07 
88.754   1.66458900e+07 
88.718   1.66458900e+07 
88.682   1.66458900e+07 
88.646   1.66458900e+07 
88.610   1.66458900e+07 
88.574   1.66458900e+07 
88.538   1.66458900e+07 
88.502   1.66458900e+07 
88.466   1.66458900e+07 
88.430   1.66458900e+07 
88.395   1.66458900e+07 
88.359   1.66458900e+07 
88.323   1.66458900e+07 
88.287   1.66458900e+07 
88.251   1.66458900e+07 
88.215   1.66458900e+07 
88.179   1.66458900e+07 
88.143   1.66458900e+07 
88.107   1.66458900e+07 
88.071   1.66458900e+07 
88.035   1.66458900e+07 
87.999   1.66458900e+07 
87.963   1.66458900e+07 
87.927   1.66458900e+07 
87.891   1.66458900e+07 
87.855   1.66458900e+07 
87.820   1.66458900e+07 
87.784   1.66458900e+07 
87.748   1.66458900e+07 
87.712   1.66458900e+07 
87.676   1.66458900e+07 
87.640   1.66458900e+07 
87.604   1.66458900e+07 
87.568   1.66458900e+07 
87.532   1.66458900e+07 
87.496   1.66458900e+07 
87.460   1.66458900e+07 
87.424   1.66458900e+07 
87.388   1.66458900e+07 
87.352   1.66458900e+07 
87.316   1.66458900e+07 
87.280   1.66458900e+07 
87.245   1.66458900e+07 
87.209   1.66458900e+07 
87.173   1.66458900e+07 
87.137   1.66458900e+07 
87.101   1.66458900e+07 
87.065   1.66458900e+07 
87.029   1.66458900e+07 
86.993   1.66458900e+07 
86.957   1.66458900e+07 
86.921   1.66458900e+07 
86.885   1.66458900e+07 
86.849   1.66458900e+07 
86.813   1.66458900e+07 
86.777   1.66458900e+07 
86.741   1.66458900e+07 
86.705   1.66458900e+07 
86.670   1.66458900e+07 
86.634   1.66458900e+07 
86.598   1.66458900e+07 
86.562   1.66458900e+07 
86.526   1.66458900e+07 
86.490   1.66458900e+07 
86.454   1.66458900e+07 
86.418   1.66458900e+07 
86.382   1.66458900e+07 
86.346   1.66458900e+07 
86.310   1.66458900e+07 
86.274   1.66458900e+07 
86.238   1.66458900e+07 
86.202   1.66458900e+07 
86.166   1.66458900e+07 
86.130   1.66458900e+07 
86.095   1.66458900e+07 
86.059   1.66458900e+07 
86.023   1.66458900e+07 

