EXPERIMENT FILE
Version = 2

[ Experiment Parameters ]
Experiment Description= <none> 
Number_of_Regions_in_Experiment= 1 

Original_File_name= C:\alexesca\data\0918test2.xps 
Instrument= HP ESCA West
Date= 09-18-2012
Time=  13:50:50

[ Layer Parameters ]
Layer_Type= XPS

[ Region 1 Parameters ]
Region_Description = Au Dithered Scan Test              
BEcenter(eV) = 91.000000
BEwidth(eV) = 10.000000
BEstep(eV) = 0.035937
Dwell_Time(sec) = 1.000000
N_o_scans = 1  
N_o_Channels = 278  
Scan_mode = 0  (DITHERED)

[ L= 1 R= 1 ]
BEcenter= 91.000  
BEwidth= -9.955  
Excitation= 1486.600
Time_p_channel= 256.000 
Size= 278
95.977   0.00000000e+00 
95.941   4.00000000e+00 
95.905   0.00000000e+00 
95.870   2.00000000e+00 
95.834   3.00000000e+00 
95.798   2.00000000e+00 
95.762   1.00000000e+00 
95.726   1.00000000e+00 
95.690   1.00000000e+00 
95.654   2.00000000e+00 
95.618   0.00000000e+00 
95.582   1.00000000e+00 
95.546   0.00000000e+00 
95.510   0.00000000e+00 
95.474   0.00000000e+00 
95.438   3.00000000e+00 
95.402   1.00000000e+00 
95.366   2.00000000e+00 
95.330   3.00000000e+00 
95.295   1.00000000e+00 
95.259   1.00000000e+00 
95.223   1.00000000e+00 
95.187   1.00000000e+00 
95.151   5.00000000e+00 
95.115   1.00000000e+00 
95.079   1.00000000e+00 
95.043   1.00000000e+00 
95.007   1.00000000e+00 
94.971   0.00000000e+00 
94.935   0.00000000e+00 
94.899   2.00000000e+00 
94.863   2.00000000e+00 
94.827   1.00000000e+00 
94.791   1.00000000e+00 
94.755   0.00000000e+00 
94.720   0.00000000e+00 
94.684   0.00000000e+00 
94.648   3.00000000e+00 
94.612   2.00000000e+00 
94.576   0.00000000e+00 
94.540   2.00000000e+00 
94.504   4.00000000e+00 
94.468   4.00000000e+00 
94.432   0.00000000e+00 
94.396   0.00000000e+00 
94.360   3.00000000e+00 
94.324   2.00000000e+00 
94.288   1.00000000e+00 
94.252   2.00000000e+00 
94.216   0.00000000e+00 
94.180   1.00000000e+00 
94.145   1.00000000e+00 
94.109   0.00000000e+00 
94.073   1.00000000e+00 
94.037   1.00000000e+00 
94.001   1.00000000e+00 
93.965   0.00000000e+00 
93.929   1.00000000e+00 
93.893   0.00000000e+00 
93.857   0.00000000e+00 
93.821   1.00000000e+00 
93.785   0.00000000e+00 
93.749   0.00000000e+00 
93.713   4.00000000e+00 
93.677   1.00000000e+00 
93.641   4.00000000e+00 
93.605   0.00000000e+00 
93.570   1.00000000e+00 
93.534   2.00000000e+00 
93.498   1.00000000e+00 
93.462   0.00000000e+00 
93.426   1.00000000e+00 
93.390   4.00000000e+00 
93.354   4.00000000e+00 
93.318   1.00000000e+00 
93.282   2.00000000e+00 
93.246   1.00000000e+00 
93.210   3.00000000e+00 
93.174   3.00000000e+00 
93.138   2.00000000e+00 
93.102   0.00000000e+00 
93.066   0.00000000e+00 
93.030   1.00000000e+00 
92.995   0.00000000e+00 
92.959   0.00000000e+00 
92.923   0.00000000e+00 
92.887   0.00000000e+00 
92.851   0.00000000e+00 
92.815   0.00000000e+00 
92.779   3.00000000e+00 
92.743   4.00000000e+00 
92.707   2.00000000e+00 
92.671   1.00000000e+00 
92.635   1.00000000e+00 
92.599   0.00000000e+00 
92.563   4.00000000e+00 
92.527   1.00000000e+00 
92.491   1.00000000e+00 
92.455   3.00000000e+00 
92.420   0.00000000e+00 
92.384   0.00000000e+00 
92.348   1.00000000e+00 
92.312   2.00000000e+00 
92.276   2.00000000e+00 
92.240   2.00000000e+00 
92.204   1.00000000e+00 
92.168   1.00000000e+00 
92.132   1.00000000e+00 
92.096   0.00000000e+00 
92.060   1.00000000e+00 
92.024   1.00000000e+00 
91.988   1.00000000e+00 
91.952   1.00000000e+00 
91.916   0.00000000e+00 
91.880   1.00000000e+00 
91.845   1.00000000e+00 
91.809   1.00000000e+00 
91.773   1.00000000e+00 
91.737   0.00000000e+00 
91.701   2.00000000e+00 
91.665   1.00000000e+00 
91.629   1.00000000e+00 
91.593   1.00000000e+00 
91.557   1.00000000e+00 
91.521   1.00000000e+00 
91.485   3.00000000e+00 
91.449   2.00000000e+00 
91.413   1.00000000e+00 
91.377   0.00000000e+00 
91.341   2.00000000e+00 
91.305   0.00000000e+00 
91.270   2.00000000e+00 
91.234   1.00000000e+00 
91.198   0.00000000e+00 
91.162   1.00000000e+00 
91.126   2.00000000e+00 
91.090   0.00000000e+00 
91.054   2.00000000e+00 
91.018   1.00000000e+00 
90.982   0.00000000e+00 
90.946   1.00000000e+00 
90.910   3.00000000e+00 
90.874   1.00000000e+00 
90.838   1.00000000e+00 
90.802   0.00000000e+00 
90.766   0.00000000e+00 
90.730   2.00000000e+00 
90.695   1.00000000e+00 
90.659   0.00000000e+00 
90.623   1.00000000e+00 
90.587   1.00000000e+00 
90.551   5.00000000e+00 
90.515   0.00000000e+00 
90.479   1.00000000e+00 
90.443   0.00000000e+00 
90.407   1.00000000e+00 
90.371   1.00000000e+00 
90.335   0.00000000e+00 
90.299   2.00000000e+00 
90.263   1.00000000e+00 
90.227   1.00000000e+00 
90.191   0.00000000e+00 
90.155   2.00000000e+00 
90.120   0.00000000e+00 
90.084   1.00000000e+00 
90.048   2.00000000e+00 
90.012   1.00000000e+00 
89.976   4.00000000e+00 
89.940   3.00000000e+00 
89.904   1.00000000e+00 
89.868   3.00000000e+00 
89.832   0.00000000e+00 
89.796   5.00000000e+00 
89.760   1.00000000e+00 
89.724   0.00000000e+00 
89.688   3.00000000e+00 
89.652   1.00000000e+00 
89.616   1.00000000e+00 
89.580   1.00000000e+00 
89.545   1.00000000e+00 
89.509   1.00000000e+00 
89.473   1.00000000e+00 
89.437   1.00000000e+00 
89.401   0.00000000e+00 
89.365   0.00000000e+00 
89.329   1.00000000e+00 
89.293   0.00000000e+00 
89.257   1.00000000e+00 
89.221   2.00000000e+00 
89.185   2.00000000e+00 
89.149   1.00000000e+00 
89.113   0.00000000e+00 
89.077   0.00000000e+00 
89.041   2.00000000e+00 
89.005   2.00000000e+00 
88.970   0.00000000e+00 
88.934   0.00000000e+00 
88.898   3.00000000e+00 
88.862   1.00000000e+00 
88.826   0.00000000e+00 
88.790   1.00000000e+00 
88.754   1.00000000e+00 
88.718   0.00000000e+00 
88.682   0.00000000e+00 
88.646   3.00000000e+00 
88.610   0.00000000e+00 
88.574   0.00000000e+00 
88.538   2.00000000e+00 
88.502   0.00000000e+00 
88.466   0.00000000e+00 
88.430   1.00000000e+00 
88.395   1.00000000e+00 
88.359   0.00000000e+00 
88.323   3.00000000e+00 
88.287   0.00000000e+00 
88.251   0.00000000e+00 
88.215   1.00000000e+00 
88.179   1.00000000e+00 
88.143   2.00000000e+00 
88.107   2.00000000e+00 
88.071   2.00000000e+00 
88.035   4.00000000e+00 
87.999   1.00000000e+00 
87.963   2.00000000e+00 
87.927   2.00000000e+00 
87.891   0.00000000e+00 
87.855   0.00000000e+00 
87.820   1.00000000e+00 
87.784   1.00000000e+00 
87.748   0.00000000e+00 
87.712   0.00000000e+00 
87.676   1.00000000e+00 
87.640   2.00000000e+00 
87.604   1.00000000e+00 
87.568   1.00000000e+00 
87.532   0.00000000e+00 
87.496   0.00000000e+00 
87.460   2.00000000e+00 
87.424   0.00000000e+00 
87.388   0.00000000e+00 
87.352   2.00000000e+00 
87.316   0.00000000e+00 
87.280   2.00000000e+00 
87.245   0.00000000e+00 
87.209   1.00000000e+00 
87.173   2.00000000e+00 
87.137   0.00000000e+00 
87.101   0.00000000e+00 
87.065   1.00000000e+00 
87.029   1.00000000e+00 
86.993   2.00000000e+00 
86.957   1.00000000e+00 
86.921   0.00000000e+00 
86.885   0.00000000e+00 
86.849   1.00000000e+00 
86.813   2.00000000e+00 
86.777   1.00000000e+00 
86.741   3.00000000e+00 
86.705   2.00000000e+00 
86.670   0.00000000e+00 
86.634   3.00000000e+00 
86.598   2.00000000e+00 
86.562   0.00000000e+00 
86.526   0.00000000e+00 
86.490   0.00000000e+00 
86.454   0.00000000e+00 
86.418   1.00000000e+00 
86.382   2.00000000e+00 
86.346   1.00000000e+00 
86.310   0.00000000e+00 
86.274   0.00000000e+00 
86.238   1.00000000e+00 
86.202   1.00000000e+00 
86.166   0.00000000e+00 
86.130   0.00000000e+00 
86.095   1.00000000e+00 
86.059   1.00000000e+00 
86.023   0.00000000e+00 

