EXPERIMENT FILE
Version = 2

[ Experiment Parameters ]
Experiment Description= <none> 
Number_of_Regions_in_Experiment= 1 

Original_File_name= C:\alexesca\data\1001_Nasa_5959and5958_HPeast_Main.xps 
Instrument= HP ESCA West
Date= 10-01-2012
Time=  14:48:58

[ Layer Parameters ]
Layer_Type= XPS

[ Region 1 Parameters ]
Region_Description = Au quick Dithered Scan Test        
BEcenter(eV) = 91.000000
BEwidth(eV) = 10.000000
BEstep(eV) = 0.035938
Dwell_Time(sec) = 0.100000
N_o_scans = 1  
N_o_Channels = 278  
Scan_mode = 0  (DITHERED)

[ L= 1 R= 1 ]
BEcenter= 91.000  
BEwidth= -9.955  
Excitation= 1486.600
Time_p_channel= 25.600  
Size= 278
95.977   1.00000000e+00 
95.941   3.00000000e+00 
95.905   4.00000000e+00 
95.870   2.00000000e+00 
95.834   6.00000000e+00 
95.798   3.00000000e+00 
95.762   2.00000000e+00 
95.726   2.00000000e+00 
95.690   2.00000000e+00 
95.654   1.00000000e+00 
95.618   3.00000000e+00 
95.582   1.00000000e+00 
95.546   4.00000000e+00 
95.510   5.00000000e+00 
95.474   2.00000000e+00 
95.438   5.00000000e+00 
95.402   5.00000000e+00 
95.366   4.00000000e+00 
95.330   0.00000000e+00 
95.295   4.00000000e+00 
95.259   6.00000000e+00 
95.223   2.00000000e+00 
95.187   3.00000000e+00 
95.151   3.00000000e+00 
95.115   4.00000000e+00 
95.079   1.00000000e+00 
95.043   4.00000000e+00 
95.007   4.00000000e+00 
94.971   5.00000000e+00 
94.935   4.00000000e+00 
94.899   6.00000000e+00 
94.863   3.00000000e+00 
94.827   2.00000000e+00 
94.791   2.00000000e+00 
94.755   4.00000000e+00 
94.720   9.00000000e+00 
94.684   7.00000000e+00 
94.648   5.00000000e+00 
94.612   2.00000000e+00 
94.576   5.00000000e+00 
94.540   8.00000000e+00 
94.504   6.00000000e+00 
94.468   6.00000000e+00 
94.432   9.00000000e+00 
94.396   6.00000000e+00 
94.360   8.00000000e+00 
94.324   6.00000000e+00 
94.288   3.00000000e+00 
94.252   8.00000000e+00 
94.216   4.00000000e+00 
94.180   6.00000000e+00 
94.145   9.00000000e+00 
94.109   7.00000000e+00 
94.073   8.00000000e+00 
94.037   4.00000000e+00 
94.001   5.00000000e+00 
93.965   8.00000000e+00 
93.929   1.00000000e+01 
93.893   7.00000000e+00 
93.857   4.00000000e+00 
93.821   6.00000000e+00 
93.785   1.10000000e+01 
93.749   7.00000000e+00 
93.713   5.00000000e+00 
93.677   9.00000000e+00 
93.641   6.00000000e+00 
93.605   5.00000000e+00 
93.570   5.00000000e+00 
93.534   5.00000000e+00 
93.498   4.00000000e+00 
93.462   2.00000000e+00 
93.426   7.00000000e+00 
93.390   1.00000000e+00 
93.354   2.00000000e+00 
93.318   7.00000000e+00 
93.282   4.00000000e+00 
93.246   7.00000000e+00 
93.210   1.00000000e+00 
93.174   5.00000000e+00 
93.138   2.00000000e+00 
93.102   2.00000000e+00 
93.066   5.00000000e+00 
93.030   3.00000000e+00 
92.995   1.00000000e+00 
92.959   5.00000000e+00 
92.923   2.00000000e+00 
92.887   3.00000000e+00 
92.851   3.00000000e+00 
92.815   0.00000000e+00 
92.779   3.00000000e+00 
92.743   4.00000000e+00 
92.707   1.00000000e+00 
92.671   3.00000000e+00 
92.635   4.00000000e+00 
92.599   2.00000000e+00 
92.563   2.00000000e+00 
92.527   1.00000000e+00 
92.491   1.00000000e+00 
92.455   0.00000000e+00 
92.420   2.00000000e+00 
92.384   1.00000000e+00 
92.348   1.00000000e+00 
92.312   2.00000000e+00 
92.276   2.00000000e+00 
92.240   1.00000000e+00 
92.204   3.00000000e+00 
92.168   2.00000000e+00 
92.132   4.00000000e+00 
92.096   1.00000000e+00 
92.060   1.00000000e+00 
92.024   2.00000000e+00 
91.988   0.00000000e+00 
91.952   2.00000000e+00 
91.916   1.00000000e+00 
91.880   3.00000000e+00 
91.845   1.00000000e+00 
91.809   0.00000000e+00 
91.773   1.00000000e+00 
91.737   5.00000000e+00 
91.701   1.00000000e+00 
91.665   2.00000000e+00 
91.629   3.00000000e+00 
91.593   0.00000000e+00 
91.557   3.00000000e+00 
91.521   4.00000000e+00 
91.485   1.00000000e+00 
91.449   4.00000000e+00 
91.413   3.00000000e+00 
91.377   5.00000000e+00 
91.341   3.00000000e+00 
91.305   4.00000000e+00 
91.270   5.00000000e+00 
91.234   9.00000000e+00 
91.198   4.00000000e+00 
91.162   8.00000000e+00 
91.126   5.00000000e+00 
91.090   6.00000000e+00 
91.054   4.00000000e+00 
91.018   4.00000000e+00 
90.982   6.00000000e+00 
90.946   6.00000000e+00 
90.910   2.00000000e+00 
90.874   7.00000000e+00 
90.838   3.00000000e+00 
90.802   3.00000000e+00 
90.766   3.00000000e+00 
90.730   8.00000000e+00 
90.695   6.00000000e+00 
90.659   5.00000000e+00 
90.623   5.00000000e+00 
90.587   8.00000000e+00 
90.551   1.20000000e+01 
90.515   9.00000000e+00 
90.479   7.00000000e+00 
90.443   7.00000000e+00 
90.407   5.00000000e+00 
90.371   5.00000000e+00 
90.335   5.00000000e+00 
90.299   9.00000000e+00 
90.263   5.00000000e+00 
90.227   8.00000000e+00 
90.191   6.00000000e+00 
90.155   9.00000000e+00 
90.120   6.00000000e+00 
90.084   8.00000000e+00 
90.048   3.00000000e+00 
90.012   1.00000000e+01 
89.976   4.00000000e+00 
89.940   1.00000000e+01 
89.904   8.00000000e+00 
89.868   6.00000000e+00 
89.832   4.00000000e+00 
89.796   5.00000000e+00 
89.760   4.00000000e+00 
89.724   6.00000000e+00 
89.688   4.00000000e+00 
89.652   3.00000000e+00 
89.616   4.00000000e+00 
89.580   2.00000000e+00 
89.545   4.00000000e+00 
89.509   3.00000000e+00 
89.473   3.00000000e+00 
89.437   0.00000000e+00 
89.401   6.00000000e+00 
89.365   4.00000000e+00 
89.329   2.00000000e+00 
89.293   2.00000000e+00 
89.257   0.00000000e+00 
89.221   2.00000000e+00 
89.185   2.00000000e+00 
89.149   3.00000000e+00 
89.113   4.00000000e+00 
89.077   3.00000000e+00 
89.041   0.00000000e+00 
89.005   1.00000000e+00 
88.970   0.00000000e+00 
88.934   3.00000000e+00 
88.898   0.00000000e+00 
88.862   1.00000000e+00 
88.826   0.00000000e+00 
88.790   1.00000000e+00 
88.754   1.00000000e+00 
88.718   1.00000000e+00 
88.682   0.00000000e+00 
88.646   0.00000000e+00 
88.610   1.00000000e+00 
88.574   2.00000000e+00 
88.538   1.00000000e+00 
88.502   0.00000000e+00 
88.466   1.00000000e+00 
88.430   1.00000000e+00 
88.395   0.00000000e+00 
88.359   1.00000000e+00 
88.323   1.00000000e+00 
88.287   3.00000000e+00 
88.251   0.00000000e+00 
88.215   0.00000000e+00 
88.179   1.00000000e+00 
88.143   2.00000000e+00 
88.107   1.00000000e+00 
88.071   1.00000000e+00 
88.035   0.00000000e+00 
87.999   0.00000000e+00 
87.963   0.00000000e+00 
87.927   2.00000000e+00 
87.891   2.00000000e+00 
87.855   0.00000000e+00 
87.820   0.00000000e+00 
87.784   0.00000000e+00 
87.748   0.00000000e+00 
87.712   1.00000000e+00 
87.676   1.00000000e+00 
87.640   0.00000000e+00 
87.604   2.00000000e+00 
87.568   0.00000000e+00 
87.532   1.00000000e+00 
87.496   1.00000000e+00 
87.460   0.00000000e+00 
87.424   2.00000000e+00 
87.388   0.00000000e+00 
87.352   0.00000000e+00 
87.316   0.00000000e+00 
87.280   0.00000000e+00 
87.245   1.00000000e+00 
87.209   0.00000000e+00 
87.173   0.00000000e+00 
87.137   0.00000000e+00 
87.101   1.00000000e+00 
87.065   0.00000000e+00 
87.029   1.00000000e+00 
86.993   0.00000000e+00 
86.957   0.00000000e+00 
86.921   0.00000000e+00 
86.885   0.00000000e+00 
86.849   0.00000000e+00 
86.813   0.00000000e+00 
86.777   2.00000000e+00 
86.741   1.00000000e+00 
86.705   0.00000000e+00 
86.670   2.00000000e+00 
86.634   1.00000000e+00 
86.598   0.00000000e+00 
86.562   0.00000000e+00 
86.526   1.00000000e+00 
86.490   0.00000000e+00 
86.454   2.00000000e+00 
86.418   1.00000000e+00 
86.382   0.00000000e+00 
86.346   0.00000000e+00 
86.310   3.00000000e+00 
86.274   2.00000000e+00 
86.238   0.00000000e+00 
86.202   1.00000000e+00 
86.166   0.00000000e+00 
86.130   0.00000000e+00 
86.095   1.00000000e+00 
86.059   0.00000000e+00 
86.023   0.00000000e+00 

