EXPERIMENT FILE
Version = 2

[ Experiment Parameters ]
Experiment Description= <none> 
Number_of_Regions_in_Experiment= 1 

Original_File_name= C:\alexesca\data\10122012_Au _4f_quick_58nuetral-38.xps 
Instrument= HP ESCA West
Date= 10-12-2012
Time=  19:33:53

[ Layer Parameters ]
Layer_Type= XPS

[ Region 1 Parameters ]
Region_Description = Au quick Dithered Scan Test        
BEcenter(eV) = 91.000000
BEwidth(eV) = 10.000000
BEstep(eV) = 0.035937
Dwell_Time(sec) = 0.500000
N_o_scans = 1  
N_o_Channels = 278  
Scan_mode = 0  (DITHERED)

[ L= 1 R= 1 ]
BEcenter= 91.000  
BEwidth= -9.955  
Excitation= 1486.600
Time_p_channel= 128.000 
Size= 278
95.977   4.30000000e+01 
95.941   5.00000000e+01 
95.905   4.80000000e+01 
95.870   6.00000000e+01 
95.834   6.00000000e+01 
95.798   6.10000000e+01 
95.762   6.30000000e+01 
95.726   6.20000000e+01 
95.690   7.80000000e+01 
95.654   6.60000000e+01 
95.618   7.80000000e+01 
95.582   7.50000000e+01 
95.546   7.60000000e+01 
95.510   7.60000000e+01 
95.474   9.10000000e+01 
95.438   1.04000000e+02 
95.402   1.01000000e+02 
95.366   1.09000000e+02 
95.330   1.17000000e+02 
95.295   1.02000000e+02 
95.259   1.35000000e+02 
95.223   1.35000000e+02 
95.187   1.19000000e+02 
95.151   1.14000000e+02 
95.115   1.26000000e+02 
95.079   1.41000000e+02 
95.043   1.31000000e+02 
95.007   1.27000000e+02 
94.971   1.10000000e+02 
94.935   1.10000000e+02 
94.899   1.06000000e+02 
94.863   1.00000000e+02 
94.827   7.60000000e+01 
94.791   9.20000000e+01 
94.755   8.90000000e+01 
94.720   8.70000000e+01 
94.684   7.10000000e+01 
94.648   7.50000000e+01 
94.612   6.90000000e+01 
94.576   6.40000000e+01 
94.540   5.80000000e+01 
94.504   5.40000000e+01 
94.468   5.40000000e+01 
94.432   3.70000000e+01 
94.396   3.60000000e+01 
94.360   4.10000000e+01 
94.324   4.10000000e+01 
94.288   4.00000000e+01 
94.252   3.00000000e+01 
94.216   2.10000000e+01 
94.180   3.00000000e+01 
94.145   2.60000000e+01 
94.109   2.20000000e+01 
94.073   2.90000000e+01 
94.037   3.00000000e+01 
94.001   3.80000000e+01 
93.965   2.60000000e+01 
93.929   1.70000000e+01 
93.893   3.70000000e+01 
93.857   2.80000000e+01 
93.821   2.50000000e+01 
93.785   2.10000000e+01 
93.749   2.80000000e+01 
93.713   3.00000000e+01 
93.677   2.30000000e+01 
93.641   3.60000000e+01 
93.605   3.30000000e+01 
93.570   3.00000000e+01 
93.534   2.80000000e+01 
93.498   3.20000000e+01 
93.462   3.20000000e+01 
93.426   2.40000000e+01 
93.390   2.00000000e+01 
93.354   3.10000000e+01 
93.318   1.70000000e+01 
93.282   2.30000000e+01 
93.246   2.70000000e+01 
93.210   2.90000000e+01 
93.174   2.40000000e+01 
93.138   2.70000000e+01 
93.102   2.20000000e+01 
93.066   3.10000000e+01 
93.030   1.90000000e+01 
92.995   3.10000000e+01 
92.959   2.80000000e+01 
92.923   3.70000000e+01 
92.887   3.40000000e+01 
92.851   4.20000000e+01 
92.815   3.70000000e+01 
92.779   3.80000000e+01 
92.743   3.90000000e+01 
92.707   3.50000000e+01 
92.671   4.10000000e+01 
92.635   2.90000000e+01 
92.599   3.70000000e+01 
92.563   4.30000000e+01 
92.527   3.90000000e+01 
92.491   4.40000000e+01 
92.455   5.10000000e+01 
92.420   4.80000000e+01 
92.384   4.40000000e+01 
92.348   3.50000000e+01 
92.312   4.20000000e+01 
92.276   6.40000000e+01 
92.240   5.40000000e+01 
92.204   6.00000000e+01 
92.168   7.30000000e+01 
92.132   6.40000000e+01 
92.096   7.50000000e+01 
92.060   6.00000000e+01 
92.024   8.00000000e+01 
91.988   8.90000000e+01 
91.952   7.00000000e+01 
91.916   8.80000000e+01 
91.880   1.12000000e+02 
91.845   1.06000000e+02 
91.809   1.00000000e+02 
91.773   1.27000000e+02 
91.737   1.20000000e+02 
91.701   1.42000000e+02 
91.665   1.34000000e+02 
91.629   1.50000000e+02 
91.593   1.40000000e+02 
91.557   1.14000000e+02 
91.521   1.54000000e+02 
91.485   1.37000000e+02 
91.449   1.44000000e+02 
91.413   1.56000000e+02 
91.377   1.41000000e+02 
91.341   1.28000000e+02 
91.305   1.54000000e+02 
91.270   1.30000000e+02 
91.234   1.24000000e+02 
91.198   1.30000000e+02 
91.162   1.27000000e+02 
91.126   1.02000000e+02 
91.090   9.80000000e+01 
91.054   7.60000000e+01 
91.018   9.30000000e+01 
90.982   7.30000000e+01 
90.946   7.00000000e+01 
90.910   5.60000000e+01 
90.874   5.30000000e+01 
90.838   5.10000000e+01 
90.802   3.90000000e+01 
90.766   4.90000000e+01 
90.730   3.60000000e+01 
90.695   4.10000000e+01 
90.659   3.00000000e+01 
90.623   2.50000000e+01 
90.587   3.20000000e+01 
90.551   2.20000000e+01 
90.515   2.80000000e+01 
90.479   2.50000000e+01 
90.443   1.80000000e+01 
90.407   2.30000000e+01 
90.371   1.90000000e+01 
90.335   2.30000000e+01 
90.299   2.20000000e+01 
90.263   1.70000000e+01 
90.227   1.70000000e+01 
90.191   1.90000000e+01 
90.155   1.80000000e+01 
90.120   2.00000000e+01 
90.084   1.20000000e+01 
90.048   1.80000000e+01 
90.012   1.80000000e+01 
89.976   1.40000000e+01 
89.940   1.10000000e+01 
89.904   1.40000000e+01 
89.868   1.40000000e+01 
89.832   1.50000000e+01 
89.796   1.80000000e+01 
89.760   8.00000000e+00 
89.724   1.50000000e+01 
89.688   1.90000000e+01 
89.652   1.20000000e+01 
89.616   1.70000000e+01 
89.580   1.50000000e+01 
89.545   8.00000000e+00 
89.509   1.70000000e+01 
89.473   1.10000000e+01 
89.437   1.80000000e+01 
89.401   1.90000000e+01 
89.365   1.60000000e+01 
89.329   1.70000000e+01 
89.293   1.80000000e+01 
89.257   1.10000000e+01 
89.221   1.00000000e+01 
89.185   1.20000000e+01 
89.149   1.40000000e+01 
89.113   1.90000000e+01 
89.077   2.10000000e+01 
89.041   1.80000000e+01 
89.005   1.60000000e+01 
88.970   9.00000000e+00 
88.934   1.10000000e+01 
88.898   1.20000000e+01 
88.862   1.60000000e+01 
88.826   1.20000000e+01 
88.790   1.00000000e+01 
88.754   8.00000000e+00 
88.718   1.20000000e+01 
88.682   1.60000000e+01 
88.646   1.30000000e+01 
88.610   1.80000000e+01 
88.574   1.90000000e+01 
88.538   1.30000000e+01 
88.502   1.40000000e+01 
88.466   1.00000000e+01 
88.430   1.40000000e+01 
88.395   1.40000000e+01 
88.359   1.30000000e+01 
88.323   9.00000000e+00 
88.287   1.40000000e+01 
88.251   1.40000000e+01 
88.215   1.30000000e+01 
88.179   1.30000000e+01 
88.143   8.00000000e+00 
88.107   1.40000000e+01 
88.071   1.30000000e+01 
88.035   1.10000000e+01 
87.999   1.30000000e+01 
87.963   1.00000000e+01 
87.927   2.00000000e+01 
87.891   9.00000000e+00 
87.855   1.00000000e+01 
87.820   1.10000000e+01 
87.784   1.30000000e+01 
87.748   1.90000000e+01 
87.712   9.00000000e+00 
87.676   1.70000000e+01 
87.640   1.20000000e+01 
87.604   9.00000000e+00 
87.568   1.60000000e+01 
87.532   1.20000000e+01 
87.496   8.00000000e+00 
87.460   1.60000000e+01 
87.424   1.20000000e+01 
87.388   1.10000000e+01 
87.352   1.40000000e+01 
87.316   1.30000000e+01 
87.280   1.60000000e+01 
87.245   2.00000000e+01 
87.209   7.00000000e+00 
87.173   8.00000000e+00 
87.137   1.60000000e+01 
87.101   1.70000000e+01 
87.065   1.60000000e+01 
87.029   1.30000000e+01 
86.993   1.00000000e+01 
86.957   1.30000000e+01 
86.921   9.00000000e+00 
86.885   8.00000000e+00 
86.849   1.10000000e+01 
86.813   6.00000000e+00 
86.777   1.00000000e+01 
86.741   1.60000000e+01 
86.705   1.70000000e+01 
86.670   1.40000000e+01 
86.634   5.00000000e+00 
86.598   1.40000000e+01 
86.562   1.60000000e+01 
86.526   1.30000000e+01 
86.490   1.00000000e+01 
86.454   1.00000000e+01 
86.418   6.00000000e+00 
86.382   9.00000000e+00 
86.346   2.00000000e+01 
86.310   1.70000000e+01 
86.274   1.00000000e+01 
86.238   2.00000000e+01 
86.202   1.20000000e+01 
86.166   1.10000000e+01 
86.130   1.10000000e+01 
86.095   1.20000000e+01 
86.059   1.20000000e+01 
86.023   7.00000000e+00 

