EXPERIMENT FILE
Version = 2

[ Experiment Parameters ]
Experiment Description= <none> 
Number_of_Regions_in_Experiment= 1 

Original_File_name= C:\alexesca\data\Noise]\asdsa.xps 
Instrument= HP ESCA West
Date= 11-19-2014
Time=  23:55:34

[ Layer Parameters ]
Layer_Type= XPS

[ Region 1 Parameters ]
Region_Description = Fixed 500+-9.2                     
BEcenter(eV) = 500.000000
BEwidth(eV) = 9.200000
BEstep(eV) = 0.035938
Dwell_Time(sec) = 1.000000
N_o_scans = 100  
N_o_Channels = 256  
Scan_mode = 1  (FIXED)

[ L= 1 R= 1 ]
BEcenter= 500.000 
BEwidth= -9.200  
Excitation= 1486.600
Time_p_channel= 100.000 
Size= 256
504.600  5.39000000e+02 
504.564  5.08000000e+02 
504.528  5.67000000e+02 
504.492  5.54000000e+02 
504.456  5.52000000e+02 
504.420  5.52000000e+02 
504.384  5.42000000e+02 
504.347  5.81000000e+02 
504.311  5.61000000e+02 
504.275  5.46000000e+02 
504.239  5.63000000e+02 
504.203  5.30000000e+02 
504.167  5.29000000e+02 
504.131  5.32000000e+02 
504.095  6.07000000e+02 
504.059  5.89000000e+02 
504.023  5.67000000e+02 
503.987  6.02000000e+02 
503.951  5.77000000e+02 
503.915  5.66000000e+02 
503.878  5.86000000e+02 
503.842  5.67000000e+02 
503.806  5.81000000e+02 
503.770  5.81000000e+02 
503.734  6.10000000e+02 
503.698  5.99000000e+02 
503.662  5.79000000e+02 
503.626  5.73000000e+02 
503.590  5.62000000e+02 
503.554  6.21000000e+02 
503.518  5.82000000e+02 
503.482  6.16000000e+02 
503.445  6.31000000e+02 
503.409  6.18000000e+02 
503.373  6.32000000e+02 
503.337  6.40000000e+02 
503.301  6.15000000e+02 
503.265  6.28000000e+02 
503.229  6.64000000e+02 
503.193  6.25000000e+02 
503.157  6.57000000e+02 
503.121  6.21000000e+02 
503.085  6.68000000e+02 
503.049  6.79000000e+02 
503.013  7.08000000e+02 
502.976  7.09000000e+02 
502.940  6.56000000e+02 
502.904  6.67000000e+02 
502.868  6.59000000e+02 
502.832  6.68000000e+02 
502.796  5.91000000e+02 
502.760  6.58000000e+02 
502.724  6.72000000e+02 
502.688  7.12000000e+02 
502.652  7.24000000e+02 
502.616  6.79000000e+02 
502.580  6.87000000e+02 
502.544  6.51000000e+02 
502.507  7.03000000e+02 
502.471  6.27000000e+02 
502.435  6.53000000e+02 
502.399  7.24000000e+02 
502.363  7.03000000e+02 
502.327  6.51000000e+02 
502.291  6.85000000e+02 
502.255  6.84000000e+02 
502.219  6.62000000e+02 
502.183  6.45000000e+02 
502.147  6.87000000e+02 
502.111  6.87000000e+02 
502.075  6.57000000e+02 
502.038  7.24000000e+02 
502.002  6.42000000e+02 
501.966  6.87000000e+02 
501.930  6.69000000e+02 
501.894  6.77000000e+02 
501.858  6.81000000e+02 
501.822  7.06000000e+02 
501.786  6.62000000e+02 
501.750  6.75000000e+02 
501.714  6.89000000e+02 
501.678  6.95000000e+02 
501.642  7.03000000e+02 
501.605  7.67000000e+02 
501.569  6.86000000e+02 
501.533  6.99000000e+02 
501.497  7.04000000e+02 
501.461  7.13000000e+02 
501.425  7.41000000e+02 
501.389  7.26000000e+02 
501.353  6.68000000e+02 
501.317  7.04000000e+02 
501.281  7.03000000e+02 
501.245  7.35000000e+02 
501.209  6.94000000e+02 
501.173  7.33000000e+02 
501.136  6.64000000e+02 
501.100  6.78000000e+02 
501.064  6.80000000e+02 
501.028  7.13000000e+02 
500.992  6.24000000e+02 
500.956  6.82000000e+02 
500.920  6.67000000e+02 
500.884  6.83000000e+02 
500.848  6.57000000e+02 
500.812  6.66000000e+02 
500.776  6.66000000e+02 
500.740  6.49000000e+02 
500.704  6.82000000e+02 
500.667  6.40000000e+02 
500.631  6.84000000e+02 
500.595  6.61000000e+02 
500.559  6.28000000e+02 
500.523  6.51000000e+02 
500.487  6.46000000e+02 
500.451  6.18000000e+02 
500.415  6.27000000e+02 
500.379  6.22000000e+02 
500.343  6.46000000e+02 
500.307  6.01000000e+02 
500.271  6.64000000e+02 
500.235  5.88000000e+02 
500.198  6.35000000e+02 
500.162  6.39000000e+02 
500.126  6.80000000e+02 
500.090  5.88000000e+02 
500.054  6.25000000e+02 
500.018  6.11000000e+02 
499.982  6.11000000e+02 
499.946  6.21000000e+02 
499.910  6.26000000e+02 
499.874  6.17000000e+02 
499.838  5.91000000e+02 
499.802  6.46000000e+02 
499.765  6.29000000e+02 
499.729  6.36000000e+02 
499.693  6.37000000e+02 
499.657  6.43000000e+02 
499.621  5.44000000e+02 
499.585  6.08000000e+02 
499.549  6.05000000e+02 
499.513  6.13000000e+02 
499.477  5.91000000e+02 
499.441  5.77000000e+02 
499.405  5.72000000e+02 
499.369  6.42000000e+02 
499.333  6.13000000e+02 
499.296  6.01000000e+02 
499.260  6.04000000e+02 
499.224  5.45000000e+02 
499.188  5.82000000e+02 
499.152  6.21000000e+02 
499.116  5.92000000e+02 
499.080  6.21000000e+02 
499.044  5.99000000e+02 
499.008  5.97000000e+02 
498.972  5.66000000e+02 
498.936  6.24000000e+02 
498.900  5.76000000e+02 
498.864  5.79000000e+02 
498.827  5.82000000e+02 
498.791  5.59000000e+02 
498.755  5.65000000e+02 
498.719  5.78000000e+02 
498.683  5.50000000e+02 
498.647  5.57000000e+02 
498.611  5.55000000e+02 
498.575  5.58000000e+02 
498.539  5.31000000e+02 
498.503  5.34000000e+02 
498.467  6.00000000e+02 
498.431  5.52000000e+02 
498.395  5.49000000e+02 
498.358  5.03000000e+02 
498.322  5.75000000e+02 
498.286  5.52000000e+02 
498.250  5.71000000e+02 
498.214  5.75000000e+02 
498.178  5.51000000e+02 
498.142  5.58000000e+02 
498.106  5.53000000e+02 
498.070  5.42000000e+02 
498.034  5.32000000e+02 
497.998  5.58000000e+02 
497.962  5.55000000e+02 
497.925  5.70000000e+02 
497.889  5.77000000e+02 
497.853  5.94000000e+02 
497.817  5.65000000e+02 
497.781  5.46000000e+02 
497.745  5.23000000e+02 
497.709  4.86000000e+02 
497.673  5.24000000e+02 
497.637  5.49000000e+02 
497.601  5.33000000e+02 
497.565  5.08000000e+02 
497.529  5.34000000e+02 
497.493  5.25000000e+02 
497.456  5.24000000e+02 
497.420  4.91000000e+02 
497.384  5.38000000e+02 
497.348  5.25000000e+02 
497.312  5.02000000e+02 
497.276  5.21000000e+02 
497.240  5.27000000e+02 
497.204  4.97000000e+02 
497.168  4.88000000e+02 
497.132  5.07000000e+02 
497.096  4.89000000e+02 
497.060  4.97000000e+02 
497.024  4.38000000e+02 
496.987  5.36000000e+02 
496.951  4.89000000e+02 
496.915  5.00000000e+02 
496.879  4.83000000e+02 
496.843  4.69000000e+02 
496.807  4.55000000e+02 
496.771  4.98000000e+02 
496.735  4.55000000e+02 
496.699  4.78000000e+02 
496.663  4.67000000e+02 
496.627  4.76000000e+02 
496.591  4.53000000e+02 
496.555  4.64000000e+02 
496.518  4.51000000e+02 
496.482  4.72000000e+02 
496.446  4.61000000e+02 
496.410  4.20000000e+02 
496.374  4.52000000e+02 
496.338  4.68000000e+02 
496.302  4.80000000e+02 
496.266  4.81000000e+02 
496.230  4.45000000e+02 
496.194  4.57000000e+02 
496.158  4.56000000e+02 
496.122  4.40000000e+02 
496.085  4.34000000e+02 
496.049  4.49000000e+02 
496.013  4.07000000e+02 
495.977  4.58000000e+02 
495.941  4.12000000e+02 
495.905  4.48000000e+02 
495.869  4.13000000e+02 
495.833  3.87000000e+02 
495.797  4.36000000e+02 
495.761  3.55000000e+02 
495.725  3.66000000e+02 
495.689  3.57000000e+02 
495.653  3.02000000e+02 
495.616  3.33000000e+02 
495.580  3.13000000e+02 
495.544  2.35000000e+02 
495.508  2.14000000e+02 
495.472  1.08000000e+02 
495.436  0.00000000e+00 
495.400  0.00000000e+00 

