[ Experiment Parameters ]
Experiment Description= <none> 
Number_of_Regions_in_Experiment= 1 

Original_File_name= c:\alexesca\data\97071009.xps 
Instrument= ESCA-West
Date= 07-10-1997
Time=  08:28:25

[ Region 1 Parameters ]
Region_Description = au 4f dithered                     
BEcenter(eV) = 85.000000
BEwidth(eV) = 8.000000
BEstep(eV) = 0.107813
Dwell_Time(sec) = 0.500000
N_o_scans = 1  
N_o_Channels = 74  
Excitation_Energy = 0.000000  
Scan_mode = 0  (DITHERED)

[ Region 1 Curve ]
BEcenter= 85.000  
BEwidth= -7.838  
Excitation= 1486.600
Time_p_channel= 384.000 
Size= 74
88.919   9.39000000e+02 
88.812   1.05400000e+03 
88.704   1.07400000e+03 
88.597   1.21300000e+03 
88.489   1.30500000e+03 
88.382   1.50400000e+03 
88.275   1.70300000e+03 
88.167   1.93300000e+03 
88.060   2.20200000e+03 
87.953   2.48700000e+03 
87.845   2.92100000e+03 
87.738   3.19100000e+03 
87.631   3.54400000e+03 
87.523   3.95700000e+03 
87.416   4.14000000e+03 
87.308   4.05300000e+03 
87.201   3.79800000e+03 
87.094   3.31400000e+03 
86.986   2.76100000e+03 
86.879   2.14700000e+03 
86.772   1.69600000e+03 
86.664   1.33900000e+03 
86.557   1.14200000e+03 
86.449   1.01400000e+03 
86.342   9.08000000e+02 
86.235   8.69000000e+02 
86.127   8.32000000e+02 
86.020   8.59000000e+02 
85.913   8.37000000e+02 
85.805   9.16000000e+02 
85.698   8.74000000e+02 
85.591   9.46000000e+02 
85.483   1.01100000e+03 
85.376   1.05300000e+03 
85.268   1.21300000e+03 
85.161   1.32600000e+03 
85.054   1.49200000e+03 
84.946   1.73200000e+03 
84.839   1.90500000e+03 
84.732   2.10600000e+03 
84.624   2.28600000e+03 
84.517   2.54600000e+03 
84.409   2.84500000e+03 
84.302   3.27300000e+03 
84.195   3.47800000e+03 
84.087   3.68600000e+03 
83.980   4.25600000e+03 
83.873   4.44800000e+03 
83.765   4.65600000e+03 
83.658   4.58300000e+03 
83.551   4.06900000e+03 
83.443   3.41000000e+03 
83.336   2.68000000e+03 
83.228   1.96400000e+03 
83.121   1.52500000e+03 
83.014   1.12300000e+03 
82.906   9.39000000e+02 
82.799   7.73000000e+02 
82.692   6.13000000e+02 
82.584   5.13000000e+02 
82.477   4.84000000e+02 
82.369   4.44000000e+02 
82.262   3.98000000e+02 
82.155   3.53000000e+02 
82.047   3.62000000e+02 
81.940   3.44000000e+02 
81.833   3.34000000e+02 
81.725   3.24000000e+02 
81.618   3.13000000e+02 
81.511   2.88000000e+02 
81.403   2.74000000e+02 
81.296   2.83000000e+02 
81.188   2.79000000e+02 
81.081   2.85000000e+02 
