[ Experiment Parameters ]
Experiment Description= <none> 
Number_of_Regions_in_Experiment= 1 

Original_File_name= c:\alexesca\data\97072403.xps 
Instrument= ESCA-West
Date= 07-24-1997
Time=  12:05:19

[ Region 1 Parameters ]
Region_Description = Ni 2p 3/2 test  again                   
BEcenter(eV) = 878.300000
BEwidth(eV) = 20.000000
BEstep(eV) = 0.251563
Dwell_Time(sec) = 1.000000
N_o_scans = 1  
N_o_Channels = 78  
Excitation_Energy = -680564733843238781862545094628842930176.000000  
Scan_mode = 0  (DITHERED)

[ Region 1 Curve ]
BEcenter= 878.300 
BEwidth= -19.213 
Excitation= 1486.600
Time_p_channel= 36.571  
Size= 78
887.906  4.54000000e+02 
887.657  4.29000000e+02 
887.407  4.58000000e+02 
887.158  4.57000000e+02 
886.908  4.33000000e+02 
886.659  4.37000000e+02 
886.409  4.27000000e+02 
886.160  4.43000000e+02 
885.910  4.21000000e+02 
885.661  4.40000000e+02 
885.411  4.01000000e+02 
885.162  4.51000000e+02 
884.912  3.97000000e+02 
884.663  4.36000000e+02 
884.413  4.33000000e+02 
884.164  4.07000000e+02 
883.914  4.36000000e+02 
883.665  4.02000000e+02 
883.415  4.00000000e+02 
883.166  4.14000000e+02 
882.916  3.93000000e+02 
882.667  4.24000000e+02 
882.417  4.37000000e+02 
882.168  4.05000000e+02 
881.918  3.98000000e+02 
881.668  3.93000000e+02 
881.419  3.98000000e+02 
881.169  4.62000000e+02 
880.920  3.97000000e+02 
880.670  3.99000000e+02 
880.421  4.31000000e+02 
880.171  3.98000000e+02 
879.922  4.01000000e+02 
879.672  4.18000000e+02 
879.423  4.13000000e+02 
879.173  4.55000000e+02 
878.924  4.35000000e+02 
878.674  4.15000000e+02 
878.425  4.08000000e+02 
878.175  4.33000000e+02 
877.926  4.10000000e+02 
877.676  3.81000000e+02 
877.427  4.21000000e+02 
877.177  3.87000000e+02 
876.928  4.12000000e+02 
876.678  3.91000000e+02 
876.429  4.28000000e+02 
876.179  4.36000000e+02 
875.930  4.07000000e+02 
875.680  3.83000000e+02 
875.431  3.99000000e+02 
875.181  4.34000000e+02 
874.932  4.20000000e+02 
874.682  3.77000000e+02 
874.432  4.08000000e+02 
874.183  4.15000000e+02 
873.933  4.25000000e+02 
873.684  4.28000000e+02 
873.434  4.30000000e+02 
873.185  3.85000000e+02 
872.935  4.27000000e+02 
872.686  4.07000000e+02 
872.436  3.99000000e+02 
872.187  3.91000000e+02 
871.937  4.37000000e+02 
871.688  4.13000000e+02 
871.438  4.05000000e+02 
871.189  3.65000000e+02 
870.939  4.02000000e+02 
870.690  4.06000000e+02 
870.440  4.37000000e+02 
870.191  4.08000000e+02 
869.941  4.00000000e+02 
869.692  3.73000000e+02 
869.442  3.76000000e+02 
869.193  4.25000000e+02 
868.943  3.83000000e+02 
868.694  4.00000000e+02 
