[ Experiment Parameters ]
Experiment Description= <none> 
Number_of_Regions_in_Experiment= 1 

Original_File_name= c:\alexesca\data\97072802.xps 
Instrument= ESCA-West
Date= 07-28-1997
Time=  16:16:10

[ Region 1 Parameters ]
Region_Description = O from MnO                         
BEcenter(eV) = 531.000000
BEwidth(eV) = 15.000000
BEstep(eV) = 0.035938
Dwell_Time(sec) = 1.000000
N_o_scans = 1  
N_o_Channels = 417  
Excitation_Energy = -0.000000  
Scan_mode = 0  (DITHERED)

[ Region 1 Curve ]
BEcenter= 531.000 
BEwidth= -14.938 
Excitation= 1486.600
Time_p_channel= 256.000 
Size= 417
538.469  5.31000000e+02 
538.433  5.52000000e+02 
538.397  4.99000000e+02 
538.361  5.31000000e+02 
538.325  5.39000000e+02 
538.289  5.00000000e+02 
538.253  4.84000000e+02 
538.217  5.06000000e+02 
538.181  5.16000000e+02 
538.146  5.24000000e+02 
538.110  4.86000000e+02 
538.074  5.77000000e+02 
538.038  4.74000000e+02 
538.002  4.76000000e+02 
537.966  5.22000000e+02 
537.930  5.34000000e+02 
537.894  5.36000000e+02 
537.858  5.25000000e+02 
537.822  5.40000000e+02 
537.787  4.99000000e+02 
537.751  5.76000000e+02 
537.715  5.46000000e+02 
537.679  5.34000000e+02 
537.643  5.19000000e+02 
537.607  5.42000000e+02 
537.571  5.19000000e+02 
537.535  5.26000000e+02 
537.499  5.14000000e+02 
537.463  4.65000000e+02 
537.427  5.15000000e+02 
537.392  5.63000000e+02 
537.356  5.67000000e+02 
537.320  5.43000000e+02 
537.284  5.19000000e+02 
537.248  5.28000000e+02 
537.212  5.54000000e+02 
537.176  5.86000000e+02 
537.140  5.65000000e+02 
537.104  5.34000000e+02 
537.068  5.27000000e+02 
537.032  5.66000000e+02 
536.997  5.77000000e+02 
536.961  5.92000000e+02 
536.925  5.03000000e+02 
536.889  5.68000000e+02 
536.853  6.23000000e+02 
536.817  5.60000000e+02 
536.781  5.79000000e+02 
536.745  6.53000000e+02 
536.709  6.03000000e+02 
536.673  5.98000000e+02 
536.637  6.22000000e+02 
536.602  6.29000000e+02 
536.566  6.43000000e+02 
536.530  6.41000000e+02 
536.494  6.18000000e+02 
536.458  6.89000000e+02 
536.422  6.94000000e+02 
536.386  6.58000000e+02 
536.350  7.04000000e+02 
536.314  6.54000000e+02 
536.278  7.46000000e+02 
536.242  7.18000000e+02 
536.207  7.33000000e+02 
536.171  7.11000000e+02 
536.135  7.64000000e+02 
536.099  7.69000000e+02 
536.063  7.48000000e+02 
536.027  7.93000000e+02 
535.991  7.96000000e+02 
535.955  8.50000000e+02 
535.919  8.84000000e+02 
535.883  8.78000000e+02 
535.848  8.18000000e+02 
535.812  8.59000000e+02 
535.776  9.64000000e+02 
535.740  9.47000000e+02 
535.704  9.39000000e+02 
535.668  9.38000000e+02 
535.632  9.66000000e+02 
535.596  9.83000000e+02 
535.560  1.02900000e+03 
535.524  9.78000000e+02 
535.488  1.07500000e+03 
535.453  1.07200000e+03 
535.417  1.07400000e+03 
535.381  1.07500000e+03 
535.345  1.17700000e+03 
535.309  1.17800000e+03 
535.273  1.17000000e+03 
535.237  1.19700000e+03 
535.201  1.18200000e+03 
535.165  1.25200000e+03 
535.129  1.22600000e+03 
535.093  1.23600000e+03 
535.058  1.31400000e+03 
535.022  1.33300000e+03 
534.986  1.38000000e+03 
534.950  1.38500000e+03 
534.914  1.36900000e+03 
534.878  1.34700000e+03 
534.842  1.45400000e+03 
534.806  1.45500000e+03 
534.770  1.50900000e+03 
534.734  1.47900000e+03 
534.698  1.56700000e+03 
534.663  1.61500000e+03 
534.627  1.57100000e+03 
534.591  1.59000000e+03 
534.555  1.66300000e+03 
534.519  1.67700000e+03 
534.483  1.69000000e+03 
534.447  1.69300000e+03 
534.411  1.74200000e+03 
534.375  1.81900000e+03 
534.339  1.86500000e+03 
534.303  1.92000000e+03 
534.268  1.88500000e+03 
534.232  1.83200000e+03 
534.196  1.93200000e+03 
534.160  1.93100000e+03 
534.124  1.96600000e+03 
534.088  1.94600000e+03 
534.052  2.01400000e+03 
534.016  2.11700000e+03 
533.980  2.08900000e+03 
533.944  2.09200000e+03 
533.909  1.95600000e+03 
533.873  2.11300000e+03 
533.837  2.05400000e+03 
533.801  2.21600000e+03 
533.765  2.06800000e+03 
533.729  2.07300000e+03 
533.693  2.08500000e+03 
533.657  2.16900000e+03 
533.621  2.16100000e+03 
533.585  2.13200000e+03 
533.549  2.11700000e+03 
533.514  2.22600000e+03 
533.478  2.12500000e+03 
533.442  2.19400000e+03 
533.406  2.19200000e+03 
533.370  2.16800000e+03 
533.334  2.12000000e+03 
533.298  2.16200000e+03 
533.262  2.17100000e+03 
533.226  2.14700000e+03 
533.190  2.13400000e+03 
533.154  2.11400000e+03 
533.119  2.13500000e+03 
533.083  2.13900000e+03 
533.047  2.20100000e+03 
533.011  2.17800000e+03 
532.975  2.22900000e+03 
532.939  2.20800000e+03 
532.903  2.27600000e+03 
532.867  2.18900000e+03 
532.831  2.28000000e+03 
532.795  2.24100000e+03 
532.759  2.27500000e+03 
532.724  2.36000000e+03 
532.688  2.34400000e+03 
532.652  2.38200000e+03 
532.616  2.40000000e+03 
532.580  2.36700000e+03 
532.544  2.40900000e+03 
532.508  2.44600000e+03 
532.472  2.51100000e+03 
532.436  2.56200000e+03 
532.400  2.51100000e+03 
532.364  2.63400000e+03 
532.329  2.70900000e+03 
532.293  2.75400000e+03 
532.257  2.84200000e+03 
532.221  2.74900000e+03 
532.185  2.80100000e+03 
532.149  2.76400000e+03 
532.113  2.90700000e+03 
532.077  2.90300000e+03 
532.041  2.88700000e+03 
532.005  2.85600000e+03 
531.970  2.91900000e+03 
531.934  2.87400000e+03 
531.898  2.98300000e+03 
531.862  2.88600000e+03 
531.826  2.67100000e+03 
531.790  2.85100000e+03 
531.754  2.71900000e+03 
531.718  2.76300000e+03 
531.682  2.65300000e+03 
531.646  2.61100000e+03 
531.610  2.57400000e+03 
531.575  2.53700000e+03 
531.539  2.41500000e+03 
531.503  2.35500000e+03 
531.467  2.14800000e+03 
531.431  2.25200000e+03 
531.395  1.97400000e+03 
531.359  2.02100000e+03 
531.323  1.91000000e+03 
531.287  1.84800000e+03 
531.251  1.69700000e+03 
531.215  1.66500000e+03 
531.180  1.56400000e+03 
531.144  1.45600000e+03 
531.108  1.44800000e+03 
531.072  1.33000000e+03 
531.036  1.32000000e+03 
531.000  1.15600000e+03 
530.964  1.11200000e+03 
530.928  1.14800000e+03 
530.892  1.02000000e+03 
530.856  9.78000000e+02 
530.820  9.24000000e+02 
530.785  8.53000000e+02 
530.749  8.16000000e+02 
530.713  7.72000000e+02 
530.677  6.84000000e+02 
530.641  7.18000000e+02 
530.605  6.84000000e+02 
530.569  6.12000000e+02 
530.533  6.19000000e+02 
530.497  6.30000000e+02 
530.461  5.17000000e+02 
530.425  5.45000000e+02 
530.390  5.26000000e+02 
530.354  5.55000000e+02 
530.318  5.22000000e+02 
530.282  4.52000000e+02 
530.246  4.79000000e+02 
530.210  4.65000000e+02 
530.174  4.58000000e+02 
530.138  4.53000000e+02 
530.102  4.58000000e+02 
530.066  4.12000000e+02 
530.030  4.26000000e+02 
529.995  3.90000000e+02 
529.959  4.07000000e+02 
529.923  4.22000000e+02 
529.887  4.01000000e+02 
529.851  4.37000000e+02 
529.815  4.14000000e+02 
529.779  3.85000000e+02 
529.743  4.06000000e+02 
529.707  3.65000000e+02 
529.671  3.53000000e+02 
529.636  3.89000000e+02 
529.600  3.66000000e+02 
529.564  3.79000000e+02 
529.528  3.71000000e+02 
529.492  3.45000000e+02 
529.456  3.45000000e+02 
529.420  3.69000000e+02 
529.384  3.27000000e+02 
529.348  3.83000000e+02 
529.312  3.70000000e+02 
529.276  3.54000000e+02 
529.241  3.35000000e+02 
529.205  3.36000000e+02 
529.169  3.53000000e+02 
529.133  3.61000000e+02 
529.097  3.20000000e+02 
529.061  3.83000000e+02 
529.025  3.57000000e+02 
528.989  3.79000000e+02 
528.953  3.35000000e+02 
528.917  3.52000000e+02 
528.881  3.57000000e+02 
528.846  3.54000000e+02 
528.810  3.44000000e+02 
528.774  3.51000000e+02 
528.738  3.66000000e+02 
528.702  3.59000000e+02 
528.666  3.09000000e+02 
528.630  3.38000000e+02 
528.594  3.39000000e+02 
528.558  3.51000000e+02 
528.522  2.98000000e+02 
528.486  3.31000000e+02 
528.451  3.29000000e+02 
528.415  3.20000000e+02 
528.379  3.31000000e+02 
528.343  3.25000000e+02 
528.307  3.08000000e+02 
528.271  3.24000000e+02 
528.235  3.25000000e+02 
528.199  3.36000000e+02 
528.163  3.24000000e+02 
528.127  3.22000000e+02 
528.091  3.31000000e+02 
528.056  3.13000000e+02 
528.020  3.28000000e+02 
527.984  3.36000000e+02 
527.948  3.62000000e+02 
527.912  3.33000000e+02 
527.876  3.46000000e+02 
527.840  3.41000000e+02 
527.804  3.31000000e+02 
527.768  3.20000000e+02 
527.732  3.37000000e+02 
527.697  3.31000000e+02 
527.661  3.50000000e+02 
527.625  3.19000000e+02 
527.589  3.43000000e+02 
527.553  3.56000000e+02 
527.517  3.44000000e+02 
527.481  3.53000000e+02 
527.445  3.14000000e+02 
527.409  3.35000000e+02 
527.373  3.02000000e+02 
527.337  3.35000000e+02 
527.302  3.40000000e+02 
527.266  3.43000000e+02 
527.230  3.44000000e+02 
527.194  3.01000000e+02 
527.158  3.28000000e+02 
527.122  3.47000000e+02 
527.086  3.65000000e+02 
527.050  3.53000000e+02 
527.014  3.06000000e+02 
526.978  3.09000000e+02 
526.942  3.32000000e+02 
526.907  3.07000000e+02 
526.871  3.11000000e+02 
526.835  3.36000000e+02 
526.799  2.97000000e+02 
526.763  3.24000000e+02 
526.727  3.43000000e+02 
526.691  3.12000000e+02 
526.655  2.84000000e+02 
526.619  3.33000000e+02 
526.583  3.28000000e+02 
526.547  3.12000000e+02 
526.512  3.07000000e+02 
526.476  3.11000000e+02 
526.440  3.45000000e+02 
526.404  3.32000000e+02 
526.368  3.21000000e+02 
526.332  3.18000000e+02 
526.296  3.23000000e+02 
526.260  3.13000000e+02 
526.224  3.04000000e+02 
526.188  2.97000000e+02 
526.152  3.31000000e+02 
526.117  3.23000000e+02 
526.081  3.23000000e+02 
526.045  3.09000000e+02 
526.009  3.13000000e+02 
525.973  3.05000000e+02 
525.937  3.05000000e+02 
525.901  3.34000000e+02 
525.865  3.40000000e+02 
525.829  3.07000000e+02 
525.793  3.05000000e+02 
525.758  3.18000000e+02 
525.722  3.28000000e+02 
525.686  3.18000000e+02 
525.650  3.13000000e+02 
525.614  3.09000000e+02 
525.578  3.35000000e+02 
525.542  3.11000000e+02 
525.506  3.03000000e+02 
525.470  3.29000000e+02 
525.434  3.38000000e+02 
525.398  3.30000000e+02 
525.363  3.29000000e+02 
525.327  3.14000000e+02 
525.291  3.17000000e+02 
525.255  3.06000000e+02 
525.219  3.05000000e+02 
525.183  3.19000000e+02 
525.147  3.18000000e+02 
525.111  3.28000000e+02 
525.075  3.13000000e+02 
525.039  3.35000000e+02 
525.003  2.98000000e+02 
524.968  3.10000000e+02 
524.932  3.07000000e+02 
524.896  3.34000000e+02 
524.860  3.21000000e+02 
524.824  3.18000000e+02 
524.788  3.11000000e+02 
524.752  3.15000000e+02 
524.716  3.39000000e+02 
524.680  3.52000000e+02 
524.644  3.24000000e+02 
524.608  3.46000000e+02 
524.573  3.16000000e+02 
524.537  3.59000000e+02 
524.501  3.31000000e+02 
524.465  3.08000000e+02 
524.429  3.12000000e+02 
524.393  3.06000000e+02 
524.357  3.21000000e+02 
524.321  3.41000000e+02 
524.285  3.29000000e+02 
524.249  3.60000000e+02 
524.213  3.46000000e+02 
524.178  3.40000000e+02 
524.142  3.24000000e+02 
524.106  3.33000000e+02 
524.070  3.27000000e+02 
524.034  3.10000000e+02 
523.998  3.23000000e+02 
523.962  3.18000000e+02 
523.926  3.53000000e+02 
523.890  3.53000000e+02 
523.854  3.23000000e+02 
523.819  3.18000000e+02 
523.783  3.31000000e+02 
523.747  3.07000000e+02 
523.711  2.97000000e+02 
523.675  3.28000000e+02 
523.639  3.06000000e+02 
523.603  3.35000000e+02 
523.567  3.43000000e+02 
523.531  3.37000000e+02 
