[ Experiment Parameters ]
Experiment Description= <none> 
Number_of_Regions_in_Experiment= 1 

Original_File_name= c:\alexesca\data\97071007.xps 
Instrument= ESCA-West
Date= 07-10-1997
Time=  08:14:31

[ Region 1 Parameters ]
Region_Description = au 4f dithered                     
BEcenter(eV) = 85.000000
BEwidth(eV) = 8.000000
BEstep(eV) = 0.107813
Dwell_Time(sec) = 0.500000
N_o_scans = 1  
N_o_Channels = 74  
Excitation_Energy = 0.000000  
Scan_mode = 0  (DITHERED)

[ Region 1 Curve ]
BEcenter= 85.000  
BEwidth= -7.838  
Excitation= 1486.600
Time_p_channel= 384.000 
Size= 74
88.919   1.11300000e+03 
88.812   1.16800000e+03 
88.704   1.29200000e+03 
88.597   1.40800000e+03 
88.489   1.59200000e+03 
88.382   1.82300000e+03 
88.275   2.11800000e+03 
88.167   2.41400000e+03 
88.060   2.91500000e+03 
87.953   3.15600000e+03 
87.845   3.64300000e+03 
87.738   3.99100000e+03 
87.631   4.25300000e+03 
87.523   4.17000000e+03 
87.416   3.89800000e+03 
87.308   3.41600000e+03 
87.201   2.73700000e+03 
87.094   2.16300000e+03 
86.986   1.77700000e+03 
86.879   1.38700000e+03 
86.772   1.23100000e+03 
86.664   9.88000000e+02 
86.557   1.00100000e+03 
86.449   9.39000000e+02 
86.342   8.90000000e+02 
86.235   8.45000000e+02 
86.127   8.24000000e+02 
86.020   8.56000000e+02 
85.913   8.59000000e+02 
85.805   9.26000000e+02 
85.698   9.78000000e+02 
85.591   1.01300000e+03 
85.483   1.23300000e+03 
85.376   1.32500000e+03 
85.268   1.40100000e+03 
85.161   1.63600000e+03 
85.054   1.87600000e+03 
84.946   1.95400000e+03 
84.839   2.22000000e+03 
84.732   2.52200000e+03 
84.624   2.74800000e+03 
84.517   3.04200000e+03 
84.409   3.42200000e+03 
84.302   3.83800000e+03 
84.195   4.16300000e+03 
84.087   4.46000000e+03 
83.980   4.62600000e+03 
83.873   4.65400000e+03 
83.765   4.14600000e+03 
83.658   3.55700000e+03 
83.551   2.64800000e+03 
83.443   2.05200000e+03 
83.336   1.53100000e+03 
83.228   1.16000000e+03 
83.121   9.95000000e+02 
83.014   7.81000000e+02 
82.906   6.11000000e+02 
82.799   5.67000000e+02 
82.692   5.23000000e+02 
82.584   4.52000000e+02 
82.477   4.38000000e+02 
82.369   4.04000000e+02 
82.262   3.45000000e+02 
82.155   3.84000000e+02 
82.047   3.24000000e+02 
81.940   2.98000000e+02 
81.833   3.16000000e+02 
81.725   3.03000000e+02 
81.618   3.05000000e+02 
81.511   2.62000000e+02 
81.403   2.63000000e+02 
81.296   2.82000000e+02 
81.188   2.54000000e+02 
81.081   2.17000000e+02 
