[ Experiment Parameters ]
Experiment Description= <none> 
Number_of_Regions_in_Experiment= 2 

Original_File_name= c:\alexesca\data\97072804.xps 
Instrument= ESCA-West
Date= 07-28-1997
Time=  17:01:24

[ Region 1 Parameters ]
Region_Description = Mn 2p from MnO                     
BEcenter(eV) = 647.500000
BEwidth(eV) = 25.000000
BEstep(eV) = 0.035938
Dwell_Time(sec) = 1.000000
N_o_scans = 1  
N_o_Channels = 696  
Excitation_Energy = -0.000000  
Scan_mode = 0  (DITHERED)

[ Region 2 Parameters ]
Region_Description = Mn 3s from MnO                     
BEcenter(eV) = 60.000000
BEwidth(eV) = 40.000000
BEstep(eV) = 0.035938
Dwell_Time(sec) = 1.000000
N_o_scans = 1  
N_o_Channels = 1113  
Excitation_Energy = -0.000000  
Scan_mode = 0  (DITHERED)

[ Region 1 Curve ]
BEcenter= 647.500 
BEwidth= -24.971 
Excitation= 1486.600
Time_p_channel= 256.000 
Size= 696
659.985  1.66700000e+03 
659.949  1.62900000e+03 
659.913  1.64300000e+03 
659.878  1.71600000e+03 
659.842  1.60700000e+03 
659.806  1.62900000e+03 
659.770  1.61800000e+03 
659.734  1.62400000e+03 
659.698  1.60800000e+03 
659.662  1.61300000e+03 
659.626  1.63000000e+03 
659.590  1.64900000e+03 
659.554  1.69200000e+03 
659.518  1.64500000e+03 
659.482  1.67200000e+03 
659.446  1.64100000e+03 
659.410  1.54000000e+03 
659.375  1.61900000e+03 
659.339  1.64900000e+03 
659.303  1.61100000e+03 
659.267  1.62500000e+03 
659.231  1.55000000e+03 
659.195  1.65200000e+03 
659.159  1.64500000e+03 
659.123  1.64300000e+03 
659.087  1.68800000e+03 
659.051  1.67900000e+03 
659.015  1.68500000e+03 
658.979  1.65600000e+03 
658.943  1.62700000e+03 
658.907  1.71500000e+03 
658.872  1.72800000e+03 
658.836  1.66100000e+03 
658.800  1.62100000e+03 
658.764  1.65000000e+03 
658.728  1.65900000e+03 
658.692  1.66700000e+03 
658.656  1.69800000e+03 
658.620  1.66600000e+03 
658.584  1.64900000e+03 
658.548  1.79800000e+03 
658.512  1.73200000e+03 
658.476  1.62400000e+03 
658.440  1.67300000e+03 
658.404  1.60900000e+03 
658.369  1.68000000e+03 
658.333  1.71900000e+03 
658.297  1.72300000e+03 
658.261  1.77800000e+03 
658.225  1.68600000e+03 
658.189  1.61600000e+03 
658.153  1.70700000e+03 
658.117  1.70500000e+03 
658.081  1.67700000e+03 
658.045  1.70500000e+03 
658.009  1.75200000e+03 
657.973  1.74400000e+03 
657.937  1.70100000e+03 
657.901  1.72000000e+03 
657.866  1.79200000e+03 
657.830  1.77300000e+03 
657.794  1.75300000e+03 
657.758  1.77700000e+03 
657.722  1.73800000e+03 
657.686  1.75500000e+03 
657.650  1.71700000e+03 
657.614  1.75800000e+03 
657.578  1.85600000e+03 
657.542  1.75300000e+03 
657.506  1.83500000e+03 
657.470  1.75000000e+03 
657.434  1.82000000e+03 
657.398  1.83200000e+03 
657.363  1.84800000e+03 
657.327  1.76000000e+03 
657.291  1.73400000e+03 
657.255  1.83700000e+03 
657.219  1.85500000e+03 
657.183  1.83400000e+03 
657.147  1.82800000e+03 
657.111  1.76200000e+03 
657.075  1.93100000e+03 
657.039  1.89200000e+03 
657.003  1.91900000e+03 
656.967  1.94300000e+03 
656.931  1.87600000e+03 
656.895  1.88300000e+03 
656.860  1.92800000e+03 
656.824  1.86800000e+03 
656.788  1.96900000e+03 
656.752  2.00000000e+03 
656.716  1.94300000e+03 
656.680  1.94700000e+03 
656.644  1.95400000e+03 
656.608  1.88200000e+03 
656.572  1.98800000e+03 
656.536  2.03800000e+03 
656.500  1.97000000e+03 
656.464  1.92200000e+03 
656.428  2.02100000e+03 
656.392  1.96600000e+03 
656.357  2.05200000e+03 
656.321  1.99400000e+03 
656.285  2.01600000e+03 
656.249  2.07000000e+03 
656.213  2.01800000e+03 
656.177  2.07200000e+03 
656.141  2.01300000e+03 
656.105  2.07000000e+03 
656.069  2.14600000e+03 
656.033  2.16500000e+03 
655.997  2.18200000e+03 
655.961  2.17000000e+03 
655.925  2.06600000e+03 
655.889  2.14300000e+03 
655.854  2.07300000e+03 
655.818  2.09700000e+03 
655.782  2.12300000e+03 
655.746  2.15600000e+03 
655.710  2.14200000e+03 
655.674  2.11200000e+03 
655.638  2.28700000e+03 
655.602  2.24800000e+03 
655.566  2.18200000e+03 
655.530  2.23000000e+03 
655.494  2.24000000e+03 
655.458  2.24100000e+03 
655.422  2.18900000e+03 
655.386  2.23000000e+03 
655.351  2.13200000e+03 
655.315  2.25600000e+03 
655.279  2.17700000e+03 
655.243  2.17800000e+03 
655.207  2.15100000e+03 
655.171  2.26700000e+03 
655.135  2.18300000e+03 
655.099  2.19100000e+03 
655.063  2.20100000e+03 
655.027  2.07700000e+03 
654.991  2.15100000e+03 
654.955  2.08300000e+03 
654.919  2.22000000e+03 
654.883  2.08300000e+03 
654.847  2.15500000e+03 
654.812  2.14400000e+03 
654.776  2.10800000e+03 
654.740  2.14400000e+03 
654.704  2.18600000e+03 
654.668  2.07500000e+03 
654.632  2.18900000e+03 
654.596  2.05500000e+03 
654.560  2.02500000e+03 
654.524  2.01000000e+03 
654.488  2.11700000e+03 
654.452  2.03000000e+03 
654.416  1.99100000e+03 
654.380  1.96600000e+03 
654.344  2.02800000e+03 
654.309  1.96300000e+03 
654.273  1.90300000e+03 
654.237  1.92600000e+03 
654.201  1.83900000e+03 
654.165  1.89600000e+03 
654.129  1.91700000e+03 
654.093  1.84700000e+03 
654.057  1.88100000e+03 
654.021  1.87300000e+03 
653.985  1.87300000e+03 
653.949  1.87300000e+03 
653.913  1.87900000e+03 
653.877  1.78700000e+03 
653.841  1.80400000e+03 
653.806  1.83500000e+03 
653.770  1.82200000e+03 
653.734  1.77900000e+03 
653.698  1.80600000e+03 
653.662  1.76900000e+03 
653.626  1.70900000e+03 
653.590  1.73900000e+03 
653.554  1.72100000e+03 
653.518  1.77000000e+03 
653.482  1.68700000e+03 
653.446  1.66300000e+03 
653.410  1.68300000e+03 
653.374  1.62500000e+03 
653.338  1.60100000e+03 
653.303  1.63400000e+03 
653.267  1.70300000e+03 
653.231  1.55800000e+03 
653.195  1.54100000e+03 
653.159  1.63000000e+03 
653.123  1.58700000e+03 
653.087  1.54600000e+03 
653.051  1.55100000e+03 
653.015  1.52800000e+03 
652.979  1.57500000e+03 
652.943  1.49000000e+03 
652.907  1.45300000e+03 
652.871  1.51100000e+03 
652.835  1.50700000e+03 
652.800  1.48100000e+03 
652.764  1.46800000e+03 
652.728  1.48400000e+03 
652.692  1.47500000e+03 
652.656  1.40700000e+03 
652.620  1.47000000e+03 
652.584  1.43900000e+03 
652.548  1.37800000e+03 
652.512  1.44900000e+03 
652.476  1.41100000e+03 
652.440  1.45100000e+03 
652.404  1.42000000e+03 
652.368  1.40100000e+03 
652.332  1.42700000e+03 
652.297  1.31700000e+03 
652.261  1.33800000e+03 
652.225  1.45500000e+03 
652.189  1.43900000e+03 
652.153  1.41200000e+03 
652.117  1.37700000e+03 
652.081  1.37000000e+03 
652.045  1.43200000e+03 
652.009  1.39300000e+03 
651.973  1.32000000e+03 
651.937  1.38600000e+03 
651.901  1.35200000e+03 
651.865  1.32700000e+03 
651.829  1.34800000e+03 
651.794  1.39100000e+03 
651.758  1.30200000e+03 
651.722  1.41000000e+03 
651.686  1.40000000e+03 
651.650  1.34800000e+03 
651.614  1.32900000e+03 
651.578  1.38000000e+03 
651.542  1.40500000e+03 
651.506  1.29700000e+03 
651.470  1.42300000e+03 
651.434  1.35400000e+03 
651.398  1.41800000e+03 
651.362  1.37300000e+03 
651.326  1.35700000e+03 
651.291  1.32900000e+03 
651.255  1.34900000e+03 
651.219  1.39100000e+03 
651.183  1.30300000e+03 
651.147  1.37900000e+03 
651.111  1.32100000e+03 
651.075  1.33200000e+03 
651.039  1.35900000e+03 
651.003  1.40400000e+03 
650.967  1.29700000e+03 
650.931  1.34300000e+03 
650.895  1.33200000e+03 
650.859  1.34700000e+03 
650.823  1.34300000e+03 
650.788  1.34800000e+03 
650.752  1.37100000e+03 
650.716  1.37200000e+03 
650.680  1.33000000e+03 
650.644  1.33200000e+03 
650.608  1.35200000e+03 
650.572  1.36800000e+03 
650.536  1.34600000e+03 
650.500  1.34600000e+03 
650.464  1.35000000e+03 
650.428  1.34400000e+03 
650.392  1.35500000e+03 
650.356  1.33300000e+03 
650.320  1.31900000e+03 
650.285  1.34700000e+03 
650.249  1.28200000e+03 
650.213  1.32000000e+03 
650.177  1.37100000e+03 
650.141  1.35000000e+03 
650.105  1.40000000e+03 
650.069  1.37300000e+03 
650.033  1.36100000e+03 
649.997  1.39900000e+03 
649.961  1.38200000e+03 
649.925  1.41000000e+03 
649.889  1.36000000e+03 
649.853  1.37500000e+03 
649.817  1.43800000e+03 
649.781  1.33000000e+03 
649.746  1.38700000e+03 
649.710  1.38800000e+03 
649.674  1.36700000e+03 
649.638  1.38700000e+03 
649.602  1.41100000e+03 
649.566  1.40000000e+03 
649.530  1.39300000e+03 
649.494  1.33700000e+03 
649.458  1.41000000e+03 
649.422  1.35400000e+03 
649.386  1.35800000e+03 
649.350  1.27800000e+03 
649.314  1.39500000e+03 
649.278  1.39600000e+03 
649.243  1.37300000e+03 
649.207  1.34600000e+03 
649.171  1.30900000e+03 
649.135  1.34800000e+03 
649.099  1.37900000e+03 
649.063  1.43800000e+03 
649.027  1.39100000e+03 
648.991  1.37000000e+03 
648.955  1.34200000e+03 
648.919  1.46600000e+03 
648.883  1.41000000e+03 
648.847  1.41000000e+03 
648.811  1.35300000e+03 
648.775  1.40900000e+03 
648.740  1.39100000e+03 
648.704  1.44700000e+03 
648.668  1.30400000e+03 
648.632  1.47400000e+03 
648.596  1.47300000e+03 
648.560  1.34600000e+03 
648.524  1.39800000e+03 
648.488  1.41000000e+03 
648.452  1.33400000e+03 
648.416  1.34600000e+03 
648.380  1.39600000e+03 
648.344  1.34500000e+03 
648.308  1.36900000e+03 
648.272  1.37900000e+03 
648.237  1.40100000e+03 
648.201  1.41000000e+03 
648.165  1.37400000e+03 
648.129  1.36400000e+03 
648.093  1.41900000e+03 
648.057  1.40300000e+03 
648.021  1.47100000e+03 
647.985  1.44500000e+03 
647.949  1.34400000e+03 
647.913  1.44800000e+03 
647.877  1.41900000e+03 
647.841  1.48600000e+03 
647.805  1.45900000e+03 
647.769  1.47600000e+03 
647.734  1.42200000e+03 
647.698  1.39700000e+03 
647.662  1.42500000e+03 
647.626  1.45200000e+03 
647.590  1.43600000e+03 
647.554  1.39400000e+03 
647.518  1.39200000e+03 
647.482  1.45700000e+03 
647.446  1.44200000e+03 
647.410  1.47700000e+03 
647.374  1.38600000e+03 
647.338  1.40900000e+03 
647.302  1.35800000e+03 
647.266  1.46400000e+03 
647.231  1.47000000e+03 
647.195  1.47500000e+03 
647.159  1.39300000e+03 
647.123  1.50200000e+03 
647.087  1.53500000e+03 
647.051  1.49300000e+03 
647.015  1.49000000e+03 
646.979  1.50200000e+03 
646.943  1.53000000e+03 
646.907  1.44600000e+03 
646.871  1.46100000e+03 
646.835  1.50500000e+03 
646.799  1.54600000e+03 
646.763  1.51400000e+03 
646.728  1.54500000e+03 
646.692  1.60800000e+03 
646.656  1.46500000e+03 
646.620  1.49500000e+03 
646.584  1.55700000e+03 
646.548  1.59500000e+03 
646.512  1.56100000e+03 
646.476  1.57600000e+03 
646.440  1.63800000e+03 
646.404  1.57800000e+03 
646.368  1.61300000e+03 
646.332  1.63300000e+03 
646.296  1.61400000e+03 
646.260  1.69400000e+03 
646.225  1.60100000e+03 
646.189  1.63900000e+03 
646.153  1.64700000e+03 
646.117  1.70800000e+03 
646.081  1.64300000e+03 
646.045  1.75100000e+03 
646.009  1.65400000e+03 
645.973  1.66200000e+03 
645.937  1.63500000e+03 
645.901  1.72500000e+03 
645.865  1.76300000e+03 
645.829  1.68800000e+03 
645.793  1.74200000e+03 
645.757  1.76700000e+03 
645.722  1.75800000e+03 
645.686  1.86800000e+03 
645.650  1.86500000e+03 
645.614  1.83500000e+03 
645.578  1.83600000e+03 
645.542  1.84600000e+03 
645.506  1.90200000e+03 
645.470  1.90700000e+03 
645.434  1.96600000e+03 
645.398  1.84400000e+03 
645.362  1.80800000e+03 
645.326  2.01200000e+03 
645.290  2.00200000e+03 
645.254  1.95100000e+03 
645.219  1.94300000e+03 
645.183  2.00100000e+03 
645.147  2.05500000e+03 
645.111  2.07300000e+03 
645.075  2.15000000e+03 
645.039  2.13600000e+03 
645.003  2.07000000e+03 
644.967  2.09200000e+03 
644.931  2.10900000e+03 
644.895  2.11300000e+03 
644.859  2.13300000e+03 
644.823  2.16300000e+03 
644.787  2.17200000e+03 
644.751  2.25200000e+03 
644.715  2.30600000e+03 
644.680  2.18500000e+03 
644.644  2.34700000e+03 
644.608  2.23400000e+03 
644.572  2.31900000e+03 
644.536  2.27700000e+03 
644.500  2.40100000e+03 
644.464  2.35300000e+03 
644.428  2.26200000e+03 
644.392  2.26200000e+03 
644.356  2.37100000e+03 
644.320  2.39200000e+03 
644.284  2.40400000e+03 
644.248  2.49700000e+03 
644.212  2.41500000e+03 
644.177  2.44600000e+03 
644.141  2.38000000e+03 
644.105  2.46000000e+03 
644.069  2.49200000e+03 
644.033  2.60400000e+03 
643.997  2.47900000e+03 
643.961  2.45700000e+03 
643.925  2.49600000e+03 
643.889  2.53800000e+03 
643.853  2.53100000e+03 
643.817  2.57100000e+03 
643.781  2.55200000e+03 
643.745  2.60000000e+03 
643.709  2.54400000e+03 
643.674  2.47100000e+03 
643.638  2.56300000e+03 
643.602  2.58300000e+03 
643.566  2.51800000e+03 
643.530  2.57700000e+03 
643.494  2.53300000e+03 
643.458  2.57300000e+03 
643.422  2.55000000e+03 
643.386  2.60400000e+03 
643.350  2.60500000e+03 
643.314  2.48700000e+03 
643.278  2.51100000e+03 
643.242  2.54400000e+03 
643.206  2.47500000e+03 
643.171  2.52700000e+03 
643.135  2.52400000e+03 
643.099  2.47800000e+03 
643.063  2.49900000e+03 
643.027  2.47800000e+03 
642.991  2.39700000e+03 
642.955  2.34200000e+03 
642.919  2.40300000e+03 
642.883  2.36200000e+03 
642.847  2.42100000e+03 
642.811  2.39900000e+03 
642.775  2.23400000e+03 
642.739  2.33200000e+03 
642.703  2.25600000e+03 
642.668  2.26300000e+03 
642.632  2.28500000e+03 
642.596  2.18700000e+03 
642.560  2.24300000e+03 
642.524  2.19500000e+03 
642.488  2.16200000e+03 
642.452  2.05700000e+03 
642.416  2.07100000e+03 
642.380  2.04700000e+03 
642.344  1.98700000e+03 
642.308  1.89900000e+03 
642.272  1.94900000e+03 
642.236  1.89200000e+03 
642.200  1.96100000e+03 
642.165  1.92700000e+03 
642.129  1.81200000e+03 
642.093  1.81400000e+03 
642.057  1.78500000e+03 
642.021  1.67800000e+03 
641.985  1.72600000e+03 
641.949  1.63400000e+03 
641.913  1.63900000e+03 
641.877  1.54000000e+03 
641.841  1.57000000e+03 
641.805  1.48700000e+03 
641.769  1.50200000e+03 
641.733  1.35800000e+03 
641.697  1.36500000e+03 
641.662  1.36300000e+03 
641.626  1.39300000e+03 
641.590  1.25300000e+03 
641.554  1.28400000e+03 
641.518  1.16300000e+03 
641.482  1.21600000e+03 
641.446  1.19700000e+03 
641.410  1.10000000e+03 
641.374  1.07300000e+03 
641.338  1.11400000e+03 
641.302  1.07700000e+03 
641.266  1.08900000e+03 
641.230  1.01700000e+03 
641.194  1.07500000e+03 
641.159  1.03900000e+03 
641.123  9.91000000e+02 
641.087  9.79000000e+02 
641.051  9.45000000e+02 
641.015  9.53000000e+02 
640.979  9.28000000e+02 
640.943  8.79000000e+02 
640.907  8.81000000e+02 
640.871  9.20000000e+02 
640.835  9.02000000e+02 
640.799  9.34000000e+02 
640.763  9.12000000e+02 
640.727  8.52000000e+02 
640.691  8.65000000e+02 
640.656  8.66000000e+02 
640.620  8.53000000e+02 
640.584  8.14000000e+02 
640.548  8.57000000e+02 
640.512  8.79000000e+02 
640.476  8.27000000e+02 
640.440  8.36000000e+02 
640.404  8.26000000e+02 
640.368  8.57000000e+02 
640.332  8.39000000e+02 
640.296  8.52000000e+02 
640.260  8.05000000e+02 
640.224  8.67000000e+02 
640.188  8.26000000e+02 
640.153  8.11000000e+02 
640.117  8.24000000e+02 
640.081  8.17000000e+02 
640.045  8.39000000e+02 
640.009  7.83000000e+02 
639.973  7.97000000e+02 
639.937  7.86000000e+02 
639.901  7.81000000e+02 
639.865  7.81000000e+02 
639.829  8.00000000e+02 
639.793  7.91000000e+02 
639.757  7.78000000e+02 
639.721  7.50000000e+02 
639.685  8.35000000e+02 
639.649  7.88000000e+02 
639.614  7.95000000e+02 
639.578  7.47000000e+02 
639.542  7.90000000e+02 
639.506  7.96000000e+02 
639.470  8.19000000e+02 
639.434  7.47000000e+02 
639.398  7.77000000e+02 
639.362  8.25000000e+02 
639.326  7.75000000e+02 
639.290  7.87000000e+02 
639.254  7.94000000e+02 
639.218  7.56000000e+02 
639.182  7.60000000e+02 
639.146  7.74000000e+02 
639.111  7.79000000e+02 
639.075  7.65000000e+02 
639.039  8.38000000e+02 
639.003  7.88000000e+02 
638.967  7.72000000e+02 
638.931  8.14000000e+02 
638.895  8.08000000e+02 
638.859  7.67000000e+02 
638.823  7.57000000e+02 
638.787  7.95000000e+02 
638.751  7.98000000e+02 
638.715  7.27000000e+02 
638.679  7.32000000e+02 
638.643  8.25000000e+02 
638.608  8.46000000e+02 
638.572  7.65000000e+02 
638.536  7.83000000e+02 
638.500  7.75000000e+02 
638.464  7.72000000e+02 
638.428  7.94000000e+02 
638.392  7.75000000e+02 
638.356  7.74000000e+02 
638.320  7.57000000e+02 
638.284  7.93000000e+02 
638.248  7.72000000e+02 
638.212  7.73000000e+02 
638.176  7.91000000e+02 
638.140  7.86000000e+02 
638.105  7.66000000e+02 
638.069  7.65000000e+02 
638.033  7.65000000e+02 
637.997  7.76000000e+02 
637.961  7.60000000e+02 
637.925  7.55000000e+02 
637.889  7.91000000e+02 
637.853  7.48000000e+02 
637.817  7.79000000e+02 
637.781  7.50000000e+02 
637.745  8.04000000e+02 
637.709  7.66000000e+02 
637.673  7.59000000e+02 
637.637  7.82000000e+02 
637.602  7.07000000e+02 
637.566  7.73000000e+02 
637.530  7.97000000e+02 
637.494  7.60000000e+02 
637.458  7.61000000e+02 
637.422  7.65000000e+02 
637.386  7.77000000e+02 
637.350  7.51000000e+02 
637.314  8.04000000e+02 
637.278  7.87000000e+02 
637.242  8.07000000e+02 
637.206  7.66000000e+02 
637.170  7.73000000e+02 
637.134  7.33000000e+02 
637.099  8.09000000e+02 
637.063  7.75000000e+02 
637.027  7.65000000e+02 
636.991  7.78000000e+02 
636.955  7.78000000e+02 
636.919  7.68000000e+02 
636.883  7.81000000e+02 
636.847  8.18000000e+02 
636.811  7.27000000e+02 
636.775  7.86000000e+02 
636.739  7.29000000e+02 
636.703  7.95000000e+02 
636.667  7.21000000e+02 
636.631  7.92000000e+02 
636.596  8.05000000e+02 
636.560  7.75000000e+02 
636.524  7.64000000e+02 
636.488  8.14000000e+02 
636.452  7.28000000e+02 
636.416  7.96000000e+02 
636.380  7.68000000e+02 
636.344  7.32000000e+02 
636.308  7.94000000e+02 
636.272  7.65000000e+02 
636.236  8.44000000e+02 
636.200  7.18000000e+02 
636.164  8.01000000e+02 
636.128  7.71000000e+02 
636.093  7.82000000e+02 
636.057  7.60000000e+02 
636.021  7.98000000e+02 
635.985  8.22000000e+02 
635.949  7.59000000e+02 
635.913  7.58000000e+02 
635.877  7.84000000e+02 
635.841  7.90000000e+02 
635.805  7.78000000e+02 
635.769  7.67000000e+02 
635.733  7.96000000e+02 
635.697  7.42000000e+02 
635.661  7.33000000e+02 
635.625  7.40000000e+02 
635.590  7.27000000e+02 
635.554  7.39000000e+02 
635.518  7.69000000e+02 
635.482  7.57000000e+02 
635.446  8.33000000e+02 
635.410  8.00000000e+02 
635.374  7.80000000e+02 
635.338  7.79000000e+02 
635.302  7.40000000e+02 
635.266  8.13000000e+02 
635.230  7.45000000e+02 
635.194  7.84000000e+02 
635.158  7.44000000e+02 
635.122  7.94000000e+02 
635.087  7.66000000e+02 
635.051  7.72000000e+02 
635.015  7.85000000e+02 
[ Region 2 Curve ]
BEcenter= 60.000  
BEwidth= -39.953 
Excitation= 1486.600
Time_p_channel= 256.000 
Size= 1113
79.977   2.81000000e+02 
79.941   2.90000000e+02 
79.905   2.78000000e+02 
79.869   2.61000000e+02 
79.833   2.61000000e+02 
79.797   2.83000000e+02 
79.761   2.73000000e+02 
79.725   2.76000000e+02 
79.689   2.81000000e+02 
79.653   2.40000000e+02 
79.617   2.55000000e+02 
79.581   2.79000000e+02 
79.545   2.59000000e+02 
79.509   2.51000000e+02 
79.474   2.45000000e+02 
79.438   2.71000000e+02 
79.402   2.72000000e+02 
79.366   2.98000000e+02 
79.330   2.99000000e+02 
79.294   2.70000000e+02 
79.258   2.88000000e+02 
79.222   2.83000000e+02 
79.186   2.75000000e+02 
79.150   2.63000000e+02 
79.114   3.07000000e+02 
79.078   2.83000000e+02 
79.042   2.93000000e+02 
79.006   2.66000000e+02 
78.971   2.87000000e+02 
78.935   2.94000000e+02 
78.899   2.68000000e+02 
78.863   2.63000000e+02 
78.827   2.68000000e+02 
78.791   2.65000000e+02 
78.755   2.78000000e+02 
78.719   2.82000000e+02 
78.683   2.96000000e+02 
78.647   2.80000000e+02 
78.611   2.62000000e+02 
78.575   2.70000000e+02 
78.539   2.86000000e+02 
78.503   2.71000000e+02 
78.468   2.51000000e+02 
78.432   3.06000000e+02 
78.396   2.55000000e+02 
78.360   2.83000000e+02 
78.324   2.68000000e+02 
78.288   2.53000000e+02 
78.252   2.59000000e+02 
78.216   2.72000000e+02 
78.180   2.69000000e+02 
78.144   2.88000000e+02 
78.108   2.71000000e+02 
78.072   2.56000000e+02 
78.036   2.71000000e+02 
78.000   2.79000000e+02 
77.965   2.53000000e+02 
77.929   2.96000000e+02 
77.893   2.61000000e+02 
77.857   2.57000000e+02 
77.821   2.35000000e+02 
77.785   2.93000000e+02 
77.749   2.78000000e+02 
77.713   2.53000000e+02 
77.677   2.72000000e+02 
77.641   2.71000000e+02 
77.605   2.93000000e+02 
77.569   2.55000000e+02 
77.533   2.51000000e+02 
77.497   2.56000000e+02 
77.462   2.74000000e+02 
77.426   2.64000000e+02 
77.390   2.91000000e+02 
77.354   2.92000000e+02 
77.318   2.74000000e+02 
77.282   2.74000000e+02 
77.246   2.48000000e+02 
77.210   3.06000000e+02 
77.174   2.38000000e+02 
77.138   2.70000000e+02 
77.102   2.48000000e+02 
77.066   2.59000000e+02 
77.030   2.67000000e+02 
76.994   2.82000000e+02 
76.959   2.45000000e+02 
76.923   2.67000000e+02 
76.887   2.67000000e+02 
76.851   2.90000000e+02 
76.815   2.57000000e+02 
76.779   2.85000000e+02 
76.743   2.62000000e+02 
76.707   2.75000000e+02 
76.671   2.63000000e+02 
76.635   2.77000000e+02 
76.599   2.60000000e+02 
76.563   2.52000000e+02 
76.527   2.77000000e+02 
76.491   2.65000000e+02 
76.456   2.30000000e+02 
76.420   2.72000000e+02 
76.384   2.84000000e+02 
76.348   2.82000000e+02 
76.312   2.57000000e+02 
76.276   2.91000000e+02 
76.240   2.99000000e+02 
76.204   2.81000000e+02 
76.168   2.71000000e+02 
76.132   2.94000000e+02 
76.096   2.90000000e+02 
76.060   2.77000000e+02 
76.024   3.05000000e+02 
75.988   2.69000000e+02 
75.953   2.79000000e+02 
75.917   2.71000000e+02 
75.881   2.72000000e+02 
75.845   2.72000000e+02 
75.809   2.71000000e+02 
75.773   2.55000000e+02 
75.737   2.59000000e+02 
75.701   2.93000000e+02 
75.665   2.88000000e+02 
75.629   2.56000000e+02 
75.593   2.69000000e+02 
75.557   3.07000000e+02 
75.521   2.71000000e+02 
75.485   2.87000000e+02 
75.449   2.67000000e+02 
75.414   2.78000000e+02 
75.378   2.44000000e+02 
75.342   2.83000000e+02 
75.306   2.85000000e+02 
75.270   2.93000000e+02 
75.234   2.80000000e+02 
75.198   2.92000000e+02 
75.162   2.93000000e+02 
75.126   2.44000000e+02 
75.090   2.78000000e+02 
75.054   2.81000000e+02 
75.018   2.55000000e+02 
74.982   2.94000000e+02 
74.946   2.62000000e+02 
74.911   2.83000000e+02 
74.875   2.92000000e+02 
74.839   2.99000000e+02 
74.803   2.71000000e+02 
74.767   2.85000000e+02 
74.731   2.74000000e+02 
74.695   3.05000000e+02 
74.659   2.51000000e+02 
74.623   3.10000000e+02 
74.587   2.77000000e+02 
74.551   3.16000000e+02 
74.515   2.97000000e+02 
74.479   3.15000000e+02 
74.443   2.71000000e+02 
74.408   2.89000000e+02 
74.372   2.76000000e+02 
74.336   2.77000000e+02 
74.300   2.96000000e+02 
74.264   2.90000000e+02 
74.228   2.84000000e+02 
74.192   2.73000000e+02 
74.156   2.83000000e+02 
74.120   2.91000000e+02 
74.084   2.95000000e+02 
74.048   2.66000000e+02 
74.012   2.73000000e+02 
73.976   2.89000000e+02 
73.940   2.80000000e+02 
73.905   2.82000000e+02 
73.869   2.80000000e+02 
73.833   2.48000000e+02 
73.797   2.77000000e+02 
73.761   2.86000000e+02 
73.725   3.20000000e+02 
73.689   2.77000000e+02 
73.653   2.87000000e+02 
73.617   2.73000000e+02 
73.581   2.87000000e+02 
73.545   2.77000000e+02 
73.509   2.80000000e+02 
73.473   2.78000000e+02 
73.437   2.85000000e+02 
73.402   2.75000000e+02 
73.366   2.94000000e+02 
73.330   2.53000000e+02 
73.294   2.84000000e+02 
73.258   2.93000000e+02 
73.222   2.75000000e+02 
73.186   2.99000000e+02 
73.150   2.76000000e+02 
73.114   2.90000000e+02 
73.078   2.79000000e+02 
73.042   2.48000000e+02 
73.006   2.62000000e+02 
72.970   2.92000000e+02 
72.934   2.84000000e+02 
72.899   2.59000000e+02 
72.863   2.92000000e+02 
72.827   2.97000000e+02 
72.791   2.73000000e+02 
72.755   2.86000000e+02 
72.719   2.81000000e+02 
72.683   3.17000000e+02 
72.647   2.65000000e+02 
72.611   2.75000000e+02 
72.575   2.76000000e+02 
72.539   2.66000000e+02 
72.503   2.71000000e+02 
72.467   2.93000000e+02 
72.431   2.84000000e+02 
72.396   2.90000000e+02 
72.360   2.64000000e+02 
72.324   2.51000000e+02 
72.288   2.94000000e+02 
72.252   2.81000000e+02 
72.216   2.81000000e+02 
72.180   2.96000000e+02 
72.144   2.76000000e+02 
72.108   2.79000000e+02 
72.072   3.01000000e+02 
72.036   2.78000000e+02 
72.000   2.64000000e+02 
71.964   2.92000000e+02 
71.928   2.95000000e+02 
71.893   2.80000000e+02 
71.857   2.56000000e+02 
71.821   2.91000000e+02 
71.785   2.67000000e+02 
71.749   3.06000000e+02 
71.713   2.69000000e+02 
71.677   2.76000000e+02 
71.641   2.84000000e+02 
71.605   2.66000000e+02 
71.569   2.39000000e+02 
71.533   2.46000000e+02 
71.497   2.76000000e+02 
71.461   2.57000000e+02 
71.425   2.90000000e+02 
71.390   2.91000000e+02 
71.354   2.83000000e+02 
71.318   2.77000000e+02 
71.282   2.85000000e+02 
71.246   2.83000000e+02 
71.210   2.69000000e+02 
71.174   3.18000000e+02 
71.138   2.55000000e+02 
71.102   2.48000000e+02 
71.066   2.91000000e+02 
71.030   2.74000000e+02 
70.994   2.90000000e+02 
70.958   2.83000000e+02 
70.922   2.92000000e+02 
70.887   2.80000000e+02 
70.851   2.99000000e+02 
70.815   3.05000000e+02 
70.779   2.90000000e+02 
70.743   2.94000000e+02 
70.707   3.07000000e+02 
70.671   2.75000000e+02 
70.635   2.78000000e+02 
70.599   2.47000000e+02 
70.563   2.65000000e+02 
70.527   2.92000000e+02 
70.491   2.83000000e+02 
70.455   3.04000000e+02 
70.419   2.74000000e+02 
70.384   2.65000000e+02 
70.348   2.80000000e+02 
70.312   2.87000000e+02 
70.276   3.32000000e+02 
70.240   2.79000000e+02 
70.204   3.28000000e+02 
70.168   2.75000000e+02 
70.132   2.50000000e+02 
70.096   2.86000000e+02 
70.060   2.44000000e+02 
70.024   2.83000000e+02 
69.988   3.06000000e+02 
69.952   2.87000000e+02 
69.916   2.76000000e+02 
69.880   3.04000000e+02 
69.845   2.96000000e+02 
69.809   2.84000000e+02 
69.773   2.67000000e+02 
69.737   2.84000000e+02 
69.701   2.72000000e+02 
69.665   2.74000000e+02 
69.629   2.67000000e+02 
69.593   2.98000000e+02 
69.557   2.85000000e+02 
69.521   3.01000000e+02 
69.485   2.60000000e+02 
69.449   2.76000000e+02 
69.413   2.79000000e+02 
69.377   2.71000000e+02 
69.342   2.39000000e+02 
69.306   2.66000000e+02 
69.270   2.68000000e+02 
69.234   3.04000000e+02 
69.198   3.03000000e+02 
69.162   2.87000000e+02 
69.126   3.00000000e+02 
69.090   2.80000000e+02 
69.054   2.96000000e+02 
69.018   2.98000000e+02 
68.982   2.80000000e+02 
68.946   2.52000000e+02 
68.910   2.76000000e+02 
68.874   2.90000000e+02 
68.839   2.57000000e+02 
68.803   3.01000000e+02 
68.767   2.55000000e+02 
68.731   2.69000000e+02 
68.695   2.70000000e+02 
68.659   2.65000000e+02 
68.623   2.56000000e+02 
68.587   2.81000000e+02 
68.551   2.74000000e+02 
68.515   2.75000000e+02 
68.479   2.70000000e+02 
68.443   2.89000000e+02 
68.407   2.62000000e+02 
68.371   2.62000000e+02 
68.336   2.66000000e+02 
68.300   2.90000000e+02 
68.264   2.92000000e+02 
68.228   2.93000000e+02 
68.192   2.77000000e+02 
68.156   2.63000000e+02 
68.120   2.71000000e+02 
68.084   2.83000000e+02 
68.048   2.76000000e+02 
68.012   2.81000000e+02 
67.976   2.68000000e+02 
67.940   3.03000000e+02 
67.904   2.69000000e+02 
67.868   2.55000000e+02 
67.833   2.88000000e+02 
67.797   2.88000000e+02 
67.761   2.92000000e+02 
67.725   2.38000000e+02 
67.689   2.63000000e+02 
67.653   2.73000000e+02 
67.617   2.93000000e+02 
67.581   2.64000000e+02 
67.545   2.73000000e+02 
67.509   2.69000000e+02 
67.473   3.10000000e+02 
67.437   2.86000000e+02 
67.401   2.91000000e+02 
67.365   2.92000000e+02 
67.330   3.02000000e+02 
67.294   2.77000000e+02 
67.258   2.97000000e+02 
67.222   2.74000000e+02 
67.186   3.04000000e+02 
67.150   2.85000000e+02 
67.114   2.75000000e+02 
67.078   2.47000000e+02 
67.042   2.75000000e+02 
67.006   2.95000000e+02 
66.970   2.78000000e+02 
66.934   2.70000000e+02 
66.898   2.51000000e+02 
66.862   2.56000000e+02 
66.827   2.90000000e+02 
66.791   2.56000000e+02 
66.755   2.59000000e+02 
66.719   2.64000000e+02 
66.683   2.81000000e+02 
66.647   2.89000000e+02 
66.611   2.86000000e+02 
66.575   2.74000000e+02 
66.539   2.71000000e+02 
66.503   2.74000000e+02 
66.467   2.64000000e+02 
66.431   2.69000000e+02 
66.395   2.79000000e+02 
66.359   2.69000000e+02 
66.324   2.67000000e+02 
66.288   2.78000000e+02 
66.252   2.30000000e+02 
66.216   2.31000000e+02 
66.180   2.55000000e+02 
66.144   2.74000000e+02 
66.108   2.41000000e+02 
66.072   2.41000000e+02 
66.036   2.75000000e+02 
66.000   2.72000000e+02 
65.964   2.95000000e+02 
65.928   2.78000000e+02 
65.892   2.70000000e+02 
65.856   2.62000000e+02 
65.821   2.73000000e+02 
65.785   2.59000000e+02 
65.749   2.77000000e+02 
65.713   2.87000000e+02 
65.677   2.31000000e+02 
65.641   2.64000000e+02 
65.605   2.74000000e+02 
65.569   2.87000000e+02 
65.533   2.57000000e+02 
65.497   2.79000000e+02 
65.461   2.45000000e+02 
65.425   2.34000000e+02 
65.389   2.60000000e+02 
65.353   2.45000000e+02 
65.318   2.67000000e+02 
65.282   2.37000000e+02 
65.246   2.77000000e+02 
65.210   2.72000000e+02 
65.174   2.36000000e+02 
65.138   2.49000000e+02 
65.102   2.67000000e+02 
65.066   2.64000000e+02 
65.030   2.49000000e+02 
64.994   2.50000000e+02 
64.958   2.65000000e+02 
64.922   2.38000000e+02 
64.886   2.78000000e+02 
64.850   2.69000000e+02 
64.814   2.75000000e+02 
64.779   2.38000000e+02 
64.743   2.31000000e+02 
64.707   2.52000000e+02 
64.671   2.28000000e+02 
64.635   2.93000000e+02 
64.599   2.31000000e+02 
64.563   2.47000000e+02 
64.527   2.71000000e+02 
64.491   2.35000000e+02 
64.455   2.50000000e+02 
64.419   2.48000000e+02 
64.383   2.35000000e+02 
64.347   2.41000000e+02 
64.311   2.37000000e+02 
64.276   2.25000000e+02 
64.240   2.34000000e+02 
64.204   2.20000000e+02 
64.168   2.56000000e+02 
64.132   2.30000000e+02 
64.096   2.06000000e+02 
64.060   2.30000000e+02 
64.024   2.34000000e+02 
63.988   2.40000000e+02 
63.952   2.43000000e+02 
63.916   2.47000000e+02 
63.880   2.72000000e+02 
63.844   2.42000000e+02 
63.808   2.14000000e+02 
63.773   2.22000000e+02 
63.737   2.58000000e+02 
63.701   2.39000000e+02 
63.665   2.33000000e+02 
63.629   2.39000000e+02 
63.593   1.98000000e+02 
63.557   2.39000000e+02 
63.521   2.62000000e+02 
63.485   2.65000000e+02 
63.449   2.47000000e+02 
63.413   2.55000000e+02 
63.377   2.35000000e+02 
63.341   2.36000000e+02 
63.305   2.50000000e+02 
63.270   2.29000000e+02 
63.234   2.42000000e+02 
63.198   2.12000000e+02 
63.162   2.42000000e+02 
63.126   2.09000000e+02 
63.090   2.33000000e+02 
63.054   2.15000000e+02 
63.018   2.33000000e+02 
62.982   2.21000000e+02 
62.946   2.22000000e+02 
62.910   2.03000000e+02 
62.874   2.15000000e+02 
62.838   2.15000000e+02 
62.802   2.42000000e+02 
62.767   2.15000000e+02 
62.731   2.19000000e+02 
62.695   2.28000000e+02 
62.659   2.27000000e+02 
62.623   2.54000000e+02 
62.587   2.29000000e+02 
62.551   2.24000000e+02 
62.515   2.23000000e+02 
62.479   1.98000000e+02 
62.443   2.25000000e+02 
62.407   2.11000000e+02 
62.371   2.21000000e+02 
62.335   2.54000000e+02 
62.299   2.26000000e+02 
62.264   2.11000000e+02 
62.228   2.29000000e+02 
62.192   2.38000000e+02 
62.156   2.17000000e+02 
62.120   2.11000000e+02 
62.084   2.12000000e+02 
62.048   2.40000000e+02 
62.012   2.44000000e+02 
61.976   2.12000000e+02 
61.940   2.50000000e+02 
61.904   2.21000000e+02 
61.868   2.05000000e+02 
61.832   2.23000000e+02 
61.796   2.27000000e+02 
61.761   2.14000000e+02 
61.725   2.27000000e+02 
61.689   2.57000000e+02 
61.653   2.29000000e+02 
61.617   2.25000000e+02 
61.581   2.07000000e+02 
61.545   2.21000000e+02 
61.509   2.43000000e+02 
61.473   2.30000000e+02 
61.437   2.21000000e+02 
61.401   2.17000000e+02 
61.365   2.96000000e+02 
61.329   2.20000000e+02 
61.293   2.32000000e+02 
61.258   2.04000000e+02 
61.222   2.18000000e+02 
61.186   2.12000000e+02 
61.150   2.54000000e+02 
61.114   2.06000000e+02 
61.078   2.20000000e+02 
61.042   1.94000000e+02 
61.006   2.48000000e+02 
60.970   2.11000000e+02 
60.934   2.04000000e+02 
60.898   2.12000000e+02 
60.862   2.26000000e+02 
60.826   2.20000000e+02 
60.790   2.21000000e+02 
60.755   2.31000000e+02 
60.719   2.12000000e+02 
60.683   2.00000000e+02 
60.647   2.28000000e+02 
60.611   2.22000000e+02 
60.575   2.04000000e+02 
60.539   2.20000000e+02 
60.503   2.25000000e+02 
60.467   1.98000000e+02 
60.431   2.17000000e+02 
60.395   2.18000000e+02 
60.359   2.30000000e+02 
60.323   2.11000000e+02 
60.287   2.13000000e+02 
60.252   2.08000000e+02 
60.216   2.23000000e+02 
60.180   2.35000000e+02 
60.144   2.23000000e+02 
60.108   2.19000000e+02 
60.072   2.11000000e+02 
60.036   1.84000000e+02 
60.000   1.89000000e+02 
59.964   2.00000000e+02 
59.928   2.09000000e+02 
59.892   2.19000000e+02 
59.856   1.86000000e+02 
59.820   2.06000000e+02 
59.784   2.13000000e+02 
59.748   2.04000000e+02 
59.713   2.21000000e+02 
59.677   2.06000000e+02 
59.641   1.92000000e+02 
59.605   2.07000000e+02 
59.569   1.95000000e+02 
59.533   2.40000000e+02 
59.497   2.19000000e+02 
59.461   2.34000000e+02 
59.425   2.04000000e+02 
59.389   1.99000000e+02 
59.353   2.06000000e+02 
59.317   2.16000000e+02 
59.281   2.09000000e+02 
59.245   2.28000000e+02 
59.210   1.92000000e+02 
59.174   2.29000000e+02 
59.138   2.09000000e+02 
59.102   2.20000000e+02 
59.066   2.10000000e+02 
59.030   2.16000000e+02 
58.994   1.97000000e+02 
58.958   2.26000000e+02 
58.922   2.17000000e+02 
58.886   2.02000000e+02 
58.850   2.18000000e+02 
58.814   2.05000000e+02 
58.778   2.13000000e+02 
58.742   2.14000000e+02 
58.707   1.99000000e+02 
58.671   1.93000000e+02 
58.635   2.23000000e+02 
58.599   1.84000000e+02 
58.563   1.85000000e+02 
58.527   2.08000000e+02 
58.491   1.92000000e+02 
58.455   2.09000000e+02 
58.419   1.92000000e+02 
58.383   2.02000000e+02 
58.347   1.94000000e+02 
58.311   2.06000000e+02 
58.275   2.17000000e+02 
58.239   2.24000000e+02 
58.204   1.97000000e+02 
58.168   2.23000000e+02 
58.132   2.05000000e+02 
58.096   2.43000000e+02 
58.060   2.16000000e+02 
58.024   2.15000000e+02 
57.988   2.14000000e+02 
57.952   2.04000000e+02 
57.916   1.76000000e+02 
57.880   1.99000000e+02 
57.844   1.87000000e+02 
57.808   2.14000000e+02 
57.772   1.96000000e+02 
57.736   1.98000000e+02 
57.701   1.87000000e+02 
57.665   2.06000000e+02 
57.629   2.08000000e+02 
57.593   1.95000000e+02 
57.557   1.98000000e+02 
57.521   1.94000000e+02 
57.485   2.14000000e+02 
57.449   2.09000000e+02 
57.413   1.94000000e+02 
57.377   2.04000000e+02 
57.341   1.97000000e+02 
57.305   2.15000000e+02 
57.269   2.09000000e+02 
57.233   2.14000000e+02 
57.198   2.06000000e+02 
57.162   2.09000000e+02 
57.126   1.94000000e+02 
57.090   2.06000000e+02 
57.054   1.88000000e+02 
57.018   1.96000000e+02 
56.982   2.35000000e+02 
56.946   2.03000000e+02 
56.910   1.96000000e+02 
56.874   1.87000000e+02 
56.838   1.89000000e+02 
56.802   2.30000000e+02 
56.766   2.12000000e+02 
56.730   2.13000000e+02 
56.695   2.06000000e+02 
56.659   1.87000000e+02 
56.623   1.77000000e+02 
56.587   2.10000000e+02 
56.551   1.81000000e+02 
56.515   1.76000000e+02 
56.479   1.94000000e+02 
56.443   2.07000000e+02 
56.407   1.84000000e+02 
56.371   1.79000000e+02 
56.335   2.01000000e+02 
56.299   1.96000000e+02 
56.263   1.69000000e+02 
56.227   2.06000000e+02 
56.192   1.78000000e+02 
56.156   1.77000000e+02 
56.120   1.94000000e+02 
56.084   1.98000000e+02 
56.048   1.85000000e+02 
56.012   1.77000000e+02 
55.976   1.88000000e+02 
55.940   1.95000000e+02 
55.904   2.12000000e+02 
55.868   2.13000000e+02 
55.832   2.16000000e+02 
55.796   2.08000000e+02 
55.760   1.94000000e+02 
55.724   1.99000000e+02 
55.689   1.77000000e+02 
55.653   2.06000000e+02 
55.617   1.94000000e+02 
55.581   2.18000000e+02 
55.545   1.82000000e+02 
55.509   1.94000000e+02 
55.473   1.87000000e+02 
55.437   2.15000000e+02 
55.401   1.70000000e+02 
55.365   1.81000000e+02 
55.329   1.91000000e+02 
55.293   1.62000000e+02 
55.257   1.94000000e+02 
55.221   2.11000000e+02 
55.186   1.84000000e+02 
55.150   1.92000000e+02 
55.114   2.15000000e+02 
55.078   2.09000000e+02 
55.042   1.84000000e+02 
55.006   1.78000000e+02 
54.970   1.64000000e+02 
54.934   1.77000000e+02 
54.898   1.61000000e+02 
54.862   1.90000000e+02 
54.826   1.88000000e+02 
54.790   2.04000000e+02 
54.754   2.01000000e+02 
54.718   1.65000000e+02 
54.682   2.01000000e+02 
54.647   2.10000000e+02 
54.611   2.02000000e+02 
54.575   1.75000000e+02 
54.539   2.06000000e+02 
54.503   1.77000000e+02 
54.467   1.88000000e+02 
54.431   2.03000000e+02 
54.395   1.80000000e+02 
54.359   1.90000000e+02 
54.323   2.03000000e+02 
54.287   2.01000000e+02 
54.251   1.93000000e+02 
54.215   2.06000000e+02 
54.179   2.04000000e+02 
54.144   2.07000000e+02 
54.108   2.08000000e+02 
54.072   1.95000000e+02 
54.036   2.24000000e+02 
54.000   2.22000000e+02 
53.964   2.22000000e+02 
53.928   2.08000000e+02 
53.892   1.96000000e+02 
53.856   2.05000000e+02 
53.820   2.19000000e+02 
53.784   2.39000000e+02 
53.748   2.37000000e+02 
53.712   2.31000000e+02 
53.676   2.05000000e+02 
53.641   2.44000000e+02 
53.605   2.32000000e+02 
53.569   2.13000000e+02 
53.533   2.20000000e+02 
53.497   2.17000000e+02 
53.461   2.33000000e+02 
53.425   2.36000000e+02 
53.389   2.23000000e+02 
53.353   2.22000000e+02 
53.317   2.78000000e+02 
53.281   2.29000000e+02 
53.245   2.51000000e+02 
53.209   2.28000000e+02 
53.173   2.46000000e+02 
53.138   2.74000000e+02 
53.102   2.83000000e+02 
53.066   2.34000000e+02 
53.030   2.67000000e+02 
52.994   2.77000000e+02 
52.958   2.49000000e+02 
52.922   2.82000000e+02 
52.886   2.81000000e+02 
52.850   2.83000000e+02 
52.814   2.98000000e+02 
52.778   2.87000000e+02 
52.742   2.91000000e+02 
52.706   2.98000000e+02 
52.670   2.70000000e+02 
52.635   2.69000000e+02 
52.599   3.10000000e+02 
52.563   3.00000000e+02 
52.527   2.95000000e+02 
52.491   2.82000000e+02 
52.455   3.12000000e+02 
52.419   2.82000000e+02 
52.383   3.15000000e+02 
52.347   3.16000000e+02 
52.311   3.22000000e+02 
52.275   3.06000000e+02 
52.239   3.15000000e+02 
52.203   3.06000000e+02 
52.167   3.36000000e+02 
52.132   3.39000000e+02 
52.096   3.26000000e+02 
52.060   3.23000000e+02 
52.024   3.63000000e+02 
51.988   3.53000000e+02 
51.952   3.37000000e+02 
51.916   3.17000000e+02 
51.880   3.45000000e+02 
51.844   3.49000000e+02 
51.808   3.37000000e+02 
51.772   3.83000000e+02 
51.736   3.37000000e+02 
51.700   3.39000000e+02 
51.664   3.32000000e+02 
51.629   4.04000000e+02 
51.593   3.54000000e+02 
51.557   3.71000000e+02 
51.521   3.47000000e+02 
51.485   3.90000000e+02 
51.449   3.81000000e+02 
51.413   4.16000000e+02 
51.377   4.06000000e+02 
51.341   3.82000000e+02 
51.305   4.21000000e+02 
51.269   3.99000000e+02 
51.233   4.10000000e+02 
51.197   4.46000000e+02 
51.161   4.28000000e+02 
51.126   4.72000000e+02 
51.090   4.84000000e+02 
51.054   4.23000000e+02 
51.018   5.01000000e+02 
50.982   4.49000000e+02 
50.946   4.59000000e+02 
50.910   4.62000000e+02 
50.874   4.76000000e+02 
50.838   4.95000000e+02 
50.802   4.74000000e+02 
50.766   5.25000000e+02 
50.730   5.22000000e+02 
50.694   5.52000000e+02 
50.658   5.81000000e+02 
50.623   5.55000000e+02 
50.587   5.68000000e+02 
50.551   5.98000000e+02 
50.515   5.73000000e+02 
50.479   6.15000000e+02 
50.443   6.11000000e+02 
50.407   6.30000000e+02 
50.371   6.30000000e+02 
50.335   6.39000000e+02 
50.299   6.33000000e+02 
50.263   6.46000000e+02 
50.227   6.48000000e+02 
50.191   6.93000000e+02 
50.155   6.96000000e+02 
50.120   6.60000000e+02 
50.084   7.34000000e+02 
50.048   6.90000000e+02 
50.012   6.40000000e+02 
49.976   6.93000000e+02 
49.940   6.99000000e+02 
49.904   6.88000000e+02 
49.868   6.90000000e+02 
49.832   6.82000000e+02 
49.796   6.76000000e+02 
49.760   6.15000000e+02 
49.724   6.68000000e+02 
49.688   6.39000000e+02 
49.652   6.59000000e+02 
49.616   6.04000000e+02 
49.581   6.18000000e+02 
49.545   5.76000000e+02 
49.509   5.89000000e+02 
49.473   5.79000000e+02 
49.437   5.51000000e+02 
49.401   5.40000000e+02 
49.365   5.37000000e+02 
49.329   5.21000000e+02 
49.293   5.14000000e+02 
49.257   5.28000000e+02 
49.221   4.77000000e+02 
49.185   4.76000000e+02 
49.149   4.40000000e+02 
49.113   4.43000000e+02 
49.078   3.99000000e+02 
49.042   3.94000000e+02 
49.006   3.96000000e+02 
48.970   3.27000000e+02 
48.934   3.39000000e+02 
48.898   3.38000000e+02 
48.862   3.11000000e+02 
48.826   2.76000000e+02 
48.790   2.97000000e+02 
48.754   2.57000000e+02 
48.718   2.70000000e+02 
48.682   2.64000000e+02 
48.646   2.46000000e+02 
48.610   2.08000000e+02 
48.575   2.07000000e+02 
48.539   2.13000000e+02 
48.503   1.81000000e+02 
48.467   1.97000000e+02 
48.431   1.82000000e+02 
48.395   1.54000000e+02 
48.359   1.74000000e+02 
48.323   1.83000000e+02 
48.287   1.57000000e+02 
48.251   1.78000000e+02 
48.215   1.37000000e+02 
48.179   1.48000000e+02 
48.143   1.22000000e+02 
48.107   1.30000000e+02 
48.072   1.37000000e+02 
48.036   1.23000000e+02 
48.000   1.37000000e+02 
47.964   1.30000000e+02 
47.928   1.48000000e+02 
47.892   1.37000000e+02 
47.856   1.30000000e+02 
47.820   1.17000000e+02 
47.784   1.21000000e+02 
47.748   1.14000000e+02 
47.712   1.22000000e+02 
47.676   1.01000000e+02 
47.640   1.26000000e+02 
47.604   1.09000000e+02 
47.569   9.00000000e+01 
47.533   9.90000000e+01 
47.497   1.08000000e+02 
47.461   1.11000000e+02 
47.425   1.09000000e+02 
47.389   1.20000000e+02 
47.353   1.23000000e+02 
47.317   1.12000000e+02 
47.281   1.11000000e+02 
47.245   1.05000000e+02 
47.209   1.11000000e+02 
47.173   9.70000000e+01 
47.137   1.02000000e+02 
47.101   9.50000000e+01 
47.066   1.04000000e+02 
47.030   1.03000000e+02 
46.994   1.07000000e+02 
46.958   9.50000000e+01 
46.922   1.09000000e+02 
46.886   9.80000000e+01 
46.850   9.10000000e+01 
46.814   9.10000000e+01 
46.778   1.05000000e+02 
46.742   1.26000000e+02 
46.706   1.13000000e+02 
46.670   9.70000000e+01 
46.634   1.10000000e+02 
46.598   1.09000000e+02 
46.563   1.06000000e+02 
46.527   9.50000000e+01 
46.491   9.90000000e+01 
46.455   1.05000000e+02 
46.419   9.70000000e+01 
46.383   1.00000000e+02 
46.347   9.70000000e+01 
46.311   9.70000000e+01 
46.275   1.01000000e+02 
46.239   9.50000000e+01 
46.203   1.13000000e+02 
46.167   9.60000000e+01 
46.131   9.40000000e+01 
46.095   9.80000000e+01 
46.060   1.09000000e+02 
46.024   1.03000000e+02 
45.988   9.30000000e+01 
45.952   1.06000000e+02 
45.916   9.70000000e+01 
45.880   1.07000000e+02 
45.844   8.60000000e+01 
45.808   1.00000000e+02 
45.772   9.40000000e+01 
45.736   9.30000000e+01 
45.700   1.09000000e+02 
45.664   1.10000000e+02 
45.628   8.70000000e+01 
45.592   1.15000000e+02 
45.557   8.10000000e+01 
45.521   1.00000000e+02 
45.485   8.40000000e+01 
45.449   1.04000000e+02 
45.413   9.30000000e+01 
45.377   9.10000000e+01 
45.341   1.08000000e+02 
45.305   1.08000000e+02 
45.269   9.10000000e+01 
45.233   1.03000000e+02 
45.197   8.80000000e+01 
45.161   1.01000000e+02 
45.125   9.80000000e+01 
45.089   9.80000000e+01 
45.054   8.60000000e+01 
45.018   1.00000000e+02 
44.982   9.90000000e+01 
44.946   9.40000000e+01 
44.910   9.40000000e+01 
44.874   9.40000000e+01 
44.838   9.80000000e+01 
44.802   1.03000000e+02 
44.766   9.30000000e+01 
44.730   9.30000000e+01 
44.694   1.06000000e+02 
44.658   9.10000000e+01 
44.622   1.22000000e+02 
44.586   8.60000000e+01 
44.551   8.40000000e+01 
44.515   1.08000000e+02 
44.479   9.50000000e+01 
44.443   8.00000000e+01 
44.407   1.08000000e+02 
44.371   9.90000000e+01 
44.335   7.20000000e+01 
44.299   8.70000000e+01 
44.263   8.80000000e+01 
44.227   8.40000000e+01 
44.191   7.90000000e+01 
44.155   8.90000000e+01 
44.119   1.16000000e+02 
44.083   8.60000000e+01 
44.047   9.50000000e+01 
44.012   1.05000000e+02 
43.976   8.30000000e+01 
43.940   1.03000000e+02 
43.904   7.60000000e+01 
43.868   8.00000000e+01 
43.832   9.30000000e+01 
43.796   1.08000000e+02 
43.760   1.03000000e+02 
43.724   9.30000000e+01 
43.688   6.90000000e+01 
43.652   1.04000000e+02 
43.616   8.60000000e+01 
43.580   8.00000000e+01 
43.544   9.60000000e+01 
43.509   9.20000000e+01 
43.473   1.11000000e+02 
43.437   9.50000000e+01 
43.401   9.80000000e+01 
43.365   1.03000000e+02 
43.329   9.40000000e+01 
43.293   8.70000000e+01 
43.257   9.20000000e+01 
43.221   9.80000000e+01 
43.185   8.10000000e+01 
43.149   9.80000000e+01 
43.113   8.70000000e+01 
43.077   9.70000000e+01 
43.041   1.07000000e+02 
43.006   9.20000000e+01 
42.970   8.00000000e+01 
42.934   8.90000000e+01 
42.898   8.90000000e+01 
42.862   7.40000000e+01 
42.826   8.00000000e+01 
42.790   1.04000000e+02 
42.754   7.20000000e+01 
42.718   8.10000000e+01 
42.682   7.50000000e+01 
42.646   8.60000000e+01 
42.610   1.03000000e+02 
42.574   8.90000000e+01 
42.538   9.60000000e+01 
42.503   7.30000000e+01 
42.467   9.40000000e+01 
42.431   1.02000000e+02 
42.395   8.00000000e+01 
42.359   9.40000000e+01 
42.323   8.50000000e+01 
42.287   9.40000000e+01 
42.251   9.80000000e+01 
42.215   9.40000000e+01 
42.179   8.70000000e+01 
42.143   9.30000000e+01 
42.107   9.10000000e+01 
42.071   9.40000000e+01 
42.035   8.90000000e+01 
42.000   9.30000000e+01 
41.964   8.60000000e+01 
41.928   9.70000000e+01 
41.892   8.30000000e+01 
41.856   8.30000000e+01 
41.820   9.30000000e+01 
41.784   7.80000000e+01 
41.748   9.20000000e+01 
41.712   8.60000000e+01 
41.676   7.20000000e+01 
41.640   9.60000000e+01 
41.604   7.20000000e+01 
41.568   9.80000000e+01 
41.532   8.90000000e+01 
41.497   7.40000000e+01 
41.461   7.90000000e+01 
41.425   8.20000000e+01 
41.389   7.80000000e+01 
41.353   8.80000000e+01 
41.317   8.40000000e+01 
41.281   1.01000000e+02 
41.245   8.10000000e+01 
41.209   9.80000000e+01 
41.173   8.00000000e+01 
41.137   1.03000000e+02 
41.101   8.40000000e+01 
41.065   7.70000000e+01 
41.029   9.00000000e+01 
40.994   8.60000000e+01 
40.958   8.50000000e+01 
40.922   8.30000000e+01 
40.886   8.70000000e+01 
40.850   8.90000000e+01 
40.814   8.80000000e+01 
40.778   8.50000000e+01 
40.742   8.40000000e+01 
40.706   9.60000000e+01 
40.670   8.00000000e+01 
40.634   8.90000000e+01 
40.598   7.40000000e+01 
40.562   8.10000000e+01 
40.526   8.50000000e+01 
40.491   1.01000000e+02 
40.455   1.07000000e+02 
40.419   8.80000000e+01 
40.383   7.90000000e+01 
40.347   8.60000000e+01 
40.311   8.60000000e+01 
40.275   9.70000000e+01 
40.239   7.90000000e+01 
40.203   9.20000000e+01 
40.167   8.90000000e+01 
40.131   8.80000000e+01 
40.095   8.70000000e+01 
40.059   1.00000000e+02 
40.023   8.10000000e+01 
