[ Experiment Parameters ]
Experiment Description= <none> 
Number_of_Regions_in_Experiment= 1 

Original_File_name= c:\alexesca\data\97071008.xps 
Instrument= ESCA-West
Date= 07-10-1997
Time=  08:25:28

[ Region 1 Parameters ]
Region_Description = au 4f dithered                     
BEcenter(eV) = 85.000000
BEwidth(eV) = 8.000000
BEstep(eV) = 0.107813
Dwell_Time(sec) = 0.500000
N_o_scans = 1  
N_o_Channels = 74  
Excitation_Energy = 0.000000  
Scan_mode = 0  (DITHERED)

[ Region 1 Curve ]
BEcenter= 85.000  
BEwidth= -7.838  
Excitation= 1486.600
Time_p_channel= 384.000 
Size= 74
88.919   9.20000000e+02 
88.812   9.28000000e+02 
88.704   1.05600000e+03 
88.597   1.01400000e+03 
88.489   1.23500000e+03 
88.382   1.28900000e+03 
88.275   1.46100000e+03 
88.167   1.67600000e+03 
88.060   1.89200000e+03 
87.953   2.14000000e+03 
87.845   2.44800000e+03 
87.738   2.83200000e+03 
87.631   3.11500000e+03 
87.523   3.45400000e+03 
87.416   3.71100000e+03 
87.308   4.03200000e+03 
87.201   3.96900000e+03 
87.094   3.71000000e+03 
86.986   3.25200000e+03 
86.879   2.70500000e+03 
86.772   2.15700000e+03 
86.664   1.63900000e+03 
86.557   1.38500000e+03 
86.449   1.05400000e+03 
86.342   9.89000000e+02 
86.235   9.08000000e+02 
86.127   8.94000000e+02 
86.020   8.77000000e+02 
85.913   8.66000000e+02 
85.805   8.58000000e+02 
85.698   8.31000000e+02 
85.591   9.08000000e+02 
85.483   9.64000000e+02 
85.376   9.50000000e+02 
85.268   1.10000000e+03 
85.161   1.17200000e+03 
85.054   1.31000000e+03 
84.946   1.40800000e+03 
84.839   1.69800000e+03 
84.732   1.87600000e+03 
84.624   2.06600000e+03 
84.517   2.24000000e+03 
84.409   2.60500000e+03 
84.302   2.75500000e+03 
84.195   3.08100000e+03 
84.087   3.26400000e+03 
83.980   3.77600000e+03 
83.873   4.15000000e+03 
83.765   4.50600000e+03 
83.658   4.51200000e+03 
83.551   4.47200000e+03 
83.443   4.11300000e+03 
83.336   3.38000000e+03 
83.228   2.74500000e+03 
83.121   2.03100000e+03 
83.014   1.38900000e+03 
82.906   1.17500000e+03 
82.799   8.73000000e+02 
82.692   7.04000000e+02 
82.584   6.36000000e+02 
82.477   5.73000000e+02 
82.369   4.79000000e+02 
82.262   4.33000000e+02 
82.155   3.93000000e+02 
82.047   3.67000000e+02 
81.940   3.71000000e+02 
81.833   3.30000000e+02 
81.725   3.10000000e+02 
81.618   3.19000000e+02 
81.511   3.12000000e+02 
81.403   2.95000000e+02 
81.296   2.77000000e+02 
81.188   2.62000000e+02 
81.081   2.65000000e+02 
