[ Experiment Parameters ]
Experiment Description= <none> 
Number_of_Regions_in_Experiment= 1 

Original_File_name= c:\alexesca\data\97072404.xps 
Instrument= ESCA-West
Date= 07-24-1997
Time=  12:08:04

[ Region 1 Parameters ]
Region_Description = Ni 2p 3/2 test  again                   
BEcenter(eV) = 865.000000
BEwidth(eV) = 60.000000
BEstep(eV) = 0.251563
Dwell_Time(sec) = 1.000000
N_o_scans = 1  
N_o_Channels = 235  
Excitation_Energy = -0.000000  
Scan_mode = 0  (DITHERED)

[ Region 1 Curve ]
BEcenter= 865.000 
BEwidth= -58.582 
Excitation= 1486.600
Time_p_channel= 36.571  
Size= 235
894.291  4.46000000e+02 
894.041  4.01000000e+02 
893.790  4.38000000e+02 
893.540  4.45000000e+02 
893.290  4.22000000e+02 
893.039  4.15000000e+02 
892.789  4.41000000e+02 
892.539  4.60000000e+02 
892.288  3.90000000e+02 
892.038  4.39000000e+02 
891.788  4.33000000e+02 
891.537  4.37000000e+02 
891.287  4.17000000e+02 
891.036  4.42000000e+02 
890.786  4.44000000e+02 
890.536  4.83000000e+02 
890.285  4.22000000e+02 
890.035  4.76000000e+02 
889.785  4.36000000e+02 
889.534  4.09000000e+02 
889.284  4.34000000e+02 
889.034  4.47000000e+02 
888.783  4.87000000e+02 
888.533  4.38000000e+02 
888.283  4.49000000e+02 
888.032  4.74000000e+02 
887.782  4.83000000e+02 
887.532  4.54000000e+02 
887.281  4.63000000e+02 
887.031  4.57000000e+02 
886.780  4.39000000e+02 
886.530  4.54000000e+02 
886.280  4.17000000e+02 
886.029  4.38000000e+02 
885.779  4.35000000e+02 
885.529  4.33000000e+02 
885.278  4.33000000e+02 
885.028  4.31000000e+02 
884.778  4.10000000e+02 
884.527  4.03000000e+02 
884.277  4.68000000e+02 
884.027  4.47000000e+02 
883.776  4.27000000e+02 
883.526  4.04000000e+02 
883.276  4.87000000e+02 
883.025  4.07000000e+02 
882.775  4.34000000e+02 
882.525  4.40000000e+02 
882.274  4.38000000e+02 
882.024  4.69000000e+02 
881.773  4.21000000e+02 
881.523  4.12000000e+02 
881.273  4.48000000e+02 
881.022  4.57000000e+02 
880.772  4.15000000e+02 
880.522  3.68000000e+02 
880.271  4.19000000e+02 
880.021  4.39000000e+02 
879.771  3.92000000e+02 
879.520  3.88000000e+02 
879.270  4.01000000e+02 
879.020  4.07000000e+02 
878.769  4.13000000e+02 
878.519  4.32000000e+02 
878.269  4.31000000e+02 
878.018  4.13000000e+02 
877.768  3.92000000e+02 
877.518  3.93000000e+02 
877.267  4.22000000e+02 
877.017  4.23000000e+02 
876.766  4.02000000e+02 
876.516  3.98000000e+02 
876.266  4.05000000e+02 
876.015  3.94000000e+02 
875.765  4.03000000e+02 
875.515  4.25000000e+02 
875.264  4.15000000e+02 
875.014  4.52000000e+02 
874.764  4.13000000e+02 
874.513  4.33000000e+02 
874.263  3.95000000e+02 
874.013  3.88000000e+02 
873.762  4.23000000e+02 
873.512  3.88000000e+02 
873.262  3.97000000e+02 
873.011  4.13000000e+02 
872.761  3.96000000e+02 
872.511  3.86000000e+02 
872.260  4.30000000e+02 
872.010  4.16000000e+02 
871.759  4.35000000e+02 
871.509  3.72000000e+02 
871.259  3.95000000e+02 
871.008  3.93000000e+02 
870.758  4.20000000e+02 
870.508  3.73000000e+02 
870.257  4.33000000e+02 
870.007  4.50000000e+02 
869.757  4.18000000e+02 
869.506  4.11000000e+02 
869.256  3.95000000e+02 
869.006  4.30000000e+02 
868.755  4.29000000e+02 
868.505  4.43000000e+02 
868.255  4.13000000e+02 
868.004  4.03000000e+02 
867.754  4.03000000e+02 
867.504  4.02000000e+02 
867.253  3.87000000e+02 
867.003  4.23000000e+02 
866.752  4.45000000e+02 
866.502  4.00000000e+02 
866.252  4.08000000e+02 
866.001  4.03000000e+02 
865.751  4.25000000e+02 
865.501  4.24000000e+02 
865.250  4.67000000e+02 
865.000  4.55000000e+02 
864.750  4.42000000e+02 
864.499  4.33000000e+02 
864.249  4.15000000e+02 
863.999  4.29000000e+02 
863.748  4.11000000e+02 
863.498  4.09000000e+02 
863.248  3.92000000e+02 
862.997  3.91000000e+02 
862.747  3.95000000e+02 
862.496  4.29000000e+02 
862.246  3.82000000e+02 
861.996  3.92000000e+02 
861.745  4.25000000e+02 
861.495  3.77000000e+02 
861.245  4.14000000e+02 
860.994  4.11000000e+02 
860.744  4.13000000e+02 
860.494  4.12000000e+02 
860.243  3.92000000e+02 
859.993  3.98000000e+02 
859.743  3.85000000e+02 
859.492  4.30000000e+02 
859.242  4.02000000e+02 
858.992  4.10000000e+02 
858.741  3.99000000e+02 
858.491  4.08000000e+02 
858.241  3.95000000e+02 
857.990  3.94000000e+02 
857.740  3.97000000e+02 
857.489  3.94000000e+02 
857.239  3.99000000e+02 
856.989  4.15000000e+02 
856.738  4.01000000e+02 
856.488  3.94000000e+02 
856.238  4.12000000e+02 
855.987  4.08000000e+02 
855.737  4.11000000e+02 
855.487  3.65000000e+02 
855.236  4.25000000e+02 
854.986  4.29000000e+02 
854.736  3.82000000e+02 
854.485  4.06000000e+02 
854.235  3.92000000e+02 
853.985  3.60000000e+02 
853.734  4.26000000e+02 
853.484  3.99000000e+02 
853.234  4.14000000e+02 
852.983  3.30000000e+02 
852.733  3.96000000e+02 
852.482  4.09000000e+02 
852.232  3.96000000e+02 
851.982  4.02000000e+02 
851.731  4.17000000e+02 
851.481  3.97000000e+02 
851.231  4.12000000e+02 
850.980  3.94000000e+02 
850.730  3.98000000e+02 
850.480  3.69000000e+02 
850.229  3.69000000e+02 
849.979  3.92000000e+02 
849.729  4.16000000e+02 
849.478  4.16000000e+02 
849.228  3.52000000e+02 
848.978  3.42000000e+02 
848.727  4.08000000e+02 
848.477  3.97000000e+02 
848.227  3.98000000e+02 
847.976  3.83000000e+02 
847.726  3.84000000e+02 
847.475  3.80000000e+02 
847.225  3.99000000e+02 
846.975  3.89000000e+02 
846.724  3.86000000e+02 
846.474  3.48000000e+02 
846.224  3.96000000e+02 
845.973  4.06000000e+02 
845.723  3.73000000e+02 
845.473  4.08000000e+02 
845.222  4.31000000e+02 
844.972  3.92000000e+02 
844.722  4.00000000e+02 
844.471  3.84000000e+02 
844.221  3.77000000e+02 
843.971  4.15000000e+02 
843.720  3.90000000e+02 
843.470  3.89000000e+02 
843.220  4.14000000e+02 
842.969  3.65000000e+02 
842.719  3.99000000e+02 
842.468  4.23000000e+02 
842.218  4.06000000e+02 
841.968  4.06000000e+02 
841.717  4.12000000e+02 
841.467  4.00000000e+02 
841.217  3.53000000e+02 
840.966  3.82000000e+02 
840.716  3.67000000e+02 
840.466  3.63000000e+02 
840.215  4.07000000e+02 
839.965  3.88000000e+02 
839.715  3.66000000e+02 
839.464  3.55000000e+02 
839.214  4.00000000e+02 
838.964  4.07000000e+02 
838.713  3.78000000e+02 
838.463  3.77000000e+02 
838.212  4.03000000e+02 
837.962  3.76000000e+02 
837.712  3.63000000e+02 
837.461  3.58000000e+02 
837.211  3.50000000e+02 
836.961  3.73000000e+02 
836.710  3.43000000e+02 
836.460  3.94000000e+02 
836.210  3.83000000e+02 
835.959  4.03000000e+02 
835.709  3.47000000e+02 
