[ Experiment Parameters ]
Experiment Description= <none> 
Number_of_Regions_in_Experiment= 1 

Original_File_name= c:\alexesca\data\97071006.xps 
Instrument= ESCA-West
Date= 07-10-1997
Time=  08:11:57

[ Region 1 Parameters ]
Region_Description = au 4f dithered                     
BEcenter(eV) = 85.000000
BEwidth(eV) = 8.000000
BEstep(eV) = 0.096094
Dwell_Time(sec) = 0.500000
N_o_scans = 1  
N_o_Channels = 83  
Excitation_Energy = 0.000000  
Scan_mode = 0  (DITHERED)

[ Region 1 Curve ]
BEcenter= 85.000  
BEwidth= -7.850  
Excitation= 1486.600
Time_p_channel= 384.000 
Size= 83
88.925   1.13800000e+03 
88.829   1.35700000e+03 
88.733   1.41100000e+03 
88.638   1.72300000e+03 
88.542   1.91200000e+03 
88.446   2.15400000e+03 
88.350   2.44500000e+03 
88.255   2.88800000e+03 
88.159   3.44300000e+03 
88.063   3.85100000e+03 
87.968   4.09900000e+03 
87.872   4.28500000e+03 
87.776   4.21100000e+03 
87.680   4.09700000e+03 
87.585   3.67200000e+03 
87.489   3.26200000e+03 
87.393   2.61200000e+03 
87.297   2.24200000e+03 
87.202   1.79600000e+03 
87.106   1.54400000e+03 
87.010   1.20900000e+03 
86.915   1.03500000e+03 
86.819   1.05200000e+03 
86.723   8.64000000e+02 
86.627   8.65000000e+02 
86.532   8.56000000e+02 
86.436   8.03000000e+02 
86.340   8.47000000e+02 
86.244   8.46000000e+02 
86.149   8.37000000e+02 
86.053   8.34000000e+02 
85.957   8.25000000e+02 
85.862   9.49000000e+02 
85.766   9.76000000e+02 
85.670   1.13800000e+03 
85.574   1.17000000e+03 
85.479   1.26400000e+03 
85.383   1.41900000e+03 
85.287   1.63500000e+03 
85.191   1.81700000e+03 
85.096   2.03300000e+03 
85.000   2.35100000e+03 
84.904   2.60300000e+03 
84.809   3.01000000e+03 
84.713   3.19300000e+03 
84.617   3.55800000e+03 
84.521   3.92500000e+03 
84.426   4.27500000e+03 
84.330   4.58300000e+03 
84.234   4.75900000e+03 
84.138   4.69500000e+03 
84.043   4.30300000e+03 
83.947   3.87900000e+03 
83.851   3.41100000e+03 
83.756   2.83200000e+03 
83.660   2.26000000e+03 
83.564   1.79400000e+03 
83.468   1.41000000e+03 
83.373   1.15700000e+03 
83.277   9.50000000e+02 
83.181   7.80000000e+02 
83.085   6.59000000e+02 
82.990   6.02000000e+02 
82.894   5.63000000e+02 
82.798   5.14000000e+02 
82.703   4.69000000e+02 
82.607   3.99000000e+02 
82.511   3.59000000e+02 
82.415   3.74000000e+02 
82.320   3.47000000e+02 
82.224   3.46000000e+02 
82.128   3.49000000e+02 
82.032   3.36000000e+02 
81.937   2.96000000e+02 
81.841   3.13000000e+02 
81.745   3.06000000e+02 
81.650   2.81000000e+02 
81.554   2.70000000e+02 
81.458   2.39000000e+02 
81.362   2.62000000e+02 
81.267   2.55000000e+02 
81.171   2.58000000e+02 
81.075   2.69000000e+02 
