[ Experiment Parameters ]
Experiment Description= <none> 
Number_of_Regions_in_Experiment= 2 

Original_File_name= c:\alexesca\data\97073115.xps 
Instrument= ESCA-West
Date= 07-30-1997
Time=  21:23:36

[ Region 1 Parameters ]
Region_Description = O for XPD                          
BEcenter(eV) = 532.000000
BEwidth(eV) = 14.000000
BEstep(eV) = 0.035938
Dwell_Time(sec) = 0.250000
N_o_scans = 1  
N_o_Channels = 390  
Excitation_Energy = -0.000000  
Scan_mode = 0  (DITHERED)

[ Region 2 Parameters ]
Region_Description = Mn for XPD                         
BEcenter(eV) = 643.000000
BEwidth(eV) = 12.000000
BEstep(eV) = 0.035938
Dwell_Time(sec) = 0.250000
N_o_scans = 1  
N_o_Channels = 334  
Excitation_Energy = -0.000000  
Scan_mode = 0  (DITHERED)

[ Region 1 Curve ]
BEcenter= 532.000 
BEwidth= -13.975 
Excitation= 1486.600
Time_p_channel= 64.000  
Size= 390
538.987  2.45000000e+02 
538.951  2.47000000e+02 
538.915  2.48000000e+02 
538.880  2.61000000e+02 
538.844  2.65000000e+02 
538.808  2.59000000e+02 
538.772  2.36000000e+02 
538.736  2.48000000e+02 
538.700  2.48000000e+02 
538.664  2.63000000e+02 
538.628  2.59000000e+02 
538.592  2.87000000e+02 
538.556  2.58000000e+02 
538.520  2.61000000e+02 
538.484  2.68000000e+02 
538.448  2.37000000e+02 
538.413  2.56000000e+02 
538.377  2.47000000e+02 
538.341  2.25000000e+02 
538.305  2.57000000e+02 
538.269  2.89000000e+02 
538.233  2.71000000e+02 
538.197  2.86000000e+02 
538.161  2.71000000e+02 
538.125  2.53000000e+02 
538.089  2.61000000e+02 
538.053  2.52000000e+02 
538.017  2.66000000e+02 
537.981  2.50000000e+02 
537.945  2.62000000e+02 
537.910  2.56000000e+02 
537.874  2.57000000e+02 
537.838  2.40000000e+02 
537.802  2.77000000e+02 
537.766  2.52000000e+02 
537.730  2.86000000e+02 
537.694  2.51000000e+02 
537.658  2.51000000e+02 
537.622  2.90000000e+02 
537.586  2.64000000e+02 
537.550  2.63000000e+02 
537.514  2.72000000e+02 
537.478  2.64000000e+02 
537.443  2.31000000e+02 
537.407  2.47000000e+02 
537.371  2.60000000e+02 
537.335  2.35000000e+02 
537.299  2.84000000e+02 
537.263  2.73000000e+02 
537.227  2.60000000e+02 
537.191  2.79000000e+02 
537.155  2.58000000e+02 
537.119  2.65000000e+02 
537.083  2.51000000e+02 
537.047  2.92000000e+02 
537.011  2.54000000e+02 
536.976  2.96000000e+02 
536.940  2.54000000e+02 
536.904  2.39000000e+02 
536.868  2.88000000e+02 
536.832  2.84000000e+02 
536.796  2.86000000e+02 
536.760  2.68000000e+02 
536.724  2.74000000e+02 
536.688  2.82000000e+02 
536.652  2.85000000e+02 
536.616  2.64000000e+02 
536.580  2.87000000e+02 
536.544  2.89000000e+02 
536.509  2.85000000e+02 
536.473  2.92000000e+02 
536.437  3.02000000e+02 
536.401  3.07000000e+02 
536.365  2.99000000e+02 
536.329  3.32000000e+02 
536.293  2.82000000e+02 
536.257  3.13000000e+02 
536.221  3.05000000e+02 
536.185  3.18000000e+02 
536.149  3.07000000e+02 
536.113  3.33000000e+02 
536.077  3.79000000e+02 
536.042  3.32000000e+02 
536.006  3.59000000e+02 
535.970  3.68000000e+02 
535.934  3.54000000e+02 
535.898  3.52000000e+02 
535.862  3.80000000e+02 
535.826  3.69000000e+02 
535.790  3.82000000e+02 
535.754  3.86000000e+02 
535.718  3.81000000e+02 
535.682  3.92000000e+02 
535.646  4.22000000e+02 
535.610  3.99000000e+02 
535.574  4.87000000e+02 
535.539  4.14000000e+02 
535.503  4.48000000e+02 
535.467  4.64000000e+02 
535.431  4.67000000e+02 
535.395  5.04000000e+02 
535.359  4.91000000e+02 
535.323  5.05000000e+02 
535.287  5.30000000e+02 
535.251  5.12000000e+02 
535.215  5.45000000e+02 
535.179  5.36000000e+02 
535.143  6.28000000e+02 
535.107  5.78000000e+02 
535.072  5.82000000e+02 
535.036  6.59000000e+02 
535.000  6.30000000e+02 
534.964  6.32000000e+02 
534.928  6.63000000e+02 
534.892  6.46000000e+02 
534.856  6.50000000e+02 
534.820  6.88000000e+02 
534.784  6.64000000e+02 
534.748  6.86000000e+02 
534.712  6.72000000e+02 
534.676  7.31000000e+02 
534.640  7.26000000e+02 
534.605  7.62000000e+02 
534.569  7.75000000e+02 
534.533  7.40000000e+02 
534.497  7.52000000e+02 
534.461  8.00000000e+02 
534.425  8.35000000e+02 
534.389  7.82000000e+02 
534.353  8.31000000e+02 
534.317  8.13000000e+02 
534.281  8.27000000e+02 
534.245  8.17000000e+02 
534.209  8.07000000e+02 
534.173  9.22000000e+02 
534.138  9.22000000e+02 
534.102  8.85000000e+02 
534.066  8.95000000e+02 
534.030  9.28000000e+02 
533.994  9.08000000e+02 
533.958  9.31000000e+02 
533.922  9.22000000e+02 
533.886  9.58000000e+02 
533.850  9.64000000e+02 
533.814  9.60000000e+02 
533.778  1.03900000e+03 
533.742  9.80000000e+02 
533.706  1.00600000e+03 
533.670  1.02400000e+03 
533.635  1.01400000e+03 
533.599  1.01500000e+03 
533.563  1.02700000e+03 
533.527  1.06000000e+03 
533.491  1.08800000e+03 
533.455  1.04100000e+03 
533.419  1.07200000e+03 
533.383  9.93000000e+02 
533.347  1.03300000e+03 
533.311  1.03500000e+03 
533.275  1.00100000e+03 
533.239  9.63000000e+02 
533.203  9.47000000e+02 
533.168  9.88000000e+02 
533.132  9.43000000e+02 
533.096  9.46000000e+02 
533.060  9.09000000e+02 
533.024  9.42000000e+02 
532.988  9.13000000e+02 
532.952  8.75000000e+02 
532.916  8.99000000e+02 
532.880  8.74000000e+02 
532.844  8.77000000e+02 
532.808  8.52000000e+02 
532.772  8.42000000e+02 
532.736  7.61000000e+02 
532.701  7.85000000e+02 
532.665  7.78000000e+02 
532.629  7.66000000e+02 
532.593  7.39000000e+02 
532.557  7.60000000e+02 
532.521  7.43000000e+02 
532.485  7.06000000e+02 
532.449  6.81000000e+02 
532.413  6.98000000e+02 
532.377  6.75000000e+02 
532.341  6.21000000e+02 
532.305  6.88000000e+02 
532.269  6.81000000e+02 
532.234  6.58000000e+02 
532.198  5.69000000e+02 
532.162  6.04000000e+02 
532.126  5.90000000e+02 
532.090  5.75000000e+02 
532.054  5.95000000e+02 
532.018  5.45000000e+02 
531.982  5.68000000e+02 
531.946  5.38000000e+02 
531.910  5.17000000e+02 
531.874  5.56000000e+02 
531.838  4.94000000e+02 
531.802  5.08000000e+02 
531.766  5.01000000e+02 
531.731  4.75000000e+02 
531.695  5.04000000e+02 
531.659  4.70000000e+02 
531.623  4.42000000e+02 
531.587  4.36000000e+02 
531.551  4.41000000e+02 
531.515  4.71000000e+02 
531.479  4.71000000e+02 
531.443  4.57000000e+02 
531.407  4.70000000e+02 
531.371  4.38000000e+02 
531.335  4.62000000e+02 
531.299  4.30000000e+02 
531.264  4.40000000e+02 
531.228  4.46000000e+02 
531.192  4.27000000e+02 
531.156  4.46000000e+02 
531.120  4.03000000e+02 
531.084  3.90000000e+02 
531.048  3.97000000e+02 
531.012  4.17000000e+02 
530.976  3.97000000e+02 
530.940  3.99000000e+02 
530.904  3.96000000e+02 
530.868  3.92000000e+02 
530.832  3.91000000e+02 
530.797  4.27000000e+02 
530.761  4.14000000e+02 
530.725  3.68000000e+02 
530.689  3.87000000e+02 
530.653  3.36000000e+02 
530.617  3.67000000e+02 
530.581  3.60000000e+02 
530.545  3.58000000e+02 
530.509  3.54000000e+02 
530.473  3.27000000e+02 
530.437  3.47000000e+02 
530.401  3.26000000e+02 
530.365  3.31000000e+02 
530.330  3.18000000e+02 
530.294  2.94000000e+02 
530.258  3.25000000e+02 
530.222  2.88000000e+02 
530.186  2.77000000e+02 
530.150  2.90000000e+02 
530.114  2.99000000e+02 
530.078  2.73000000e+02 
530.042  2.75000000e+02 
530.006  2.92000000e+02 
529.970  2.56000000e+02 
529.934  2.72000000e+02 
529.898  2.82000000e+02 
529.862  2.69000000e+02 
529.827  2.49000000e+02 
529.791  2.63000000e+02 
529.755  2.45000000e+02 
529.719  2.59000000e+02 
529.683  2.33000000e+02 
529.647  2.66000000e+02 
529.611  2.40000000e+02 
529.575  2.64000000e+02 
529.539  2.57000000e+02 
529.503  2.01000000e+02 
529.467  2.38000000e+02 
529.431  2.25000000e+02 
529.395  2.43000000e+02 
529.360  2.21000000e+02 
529.324  2.37000000e+02 
529.288  2.19000000e+02 
529.252  2.16000000e+02 
529.216  2.38000000e+02 
529.180  2.10000000e+02 
529.144  2.31000000e+02 
529.108  2.24000000e+02 
529.072  2.42000000e+02 
529.036  2.10000000e+02 
529.000  2.28000000e+02 
528.964  1.97000000e+02 
528.928  2.16000000e+02 
528.893  2.32000000e+02 
528.857  2.48000000e+02 
528.821  2.29000000e+02 
528.785  2.05000000e+02 
528.749  2.27000000e+02 
528.713  2.32000000e+02 
528.677  2.26000000e+02 
528.641  2.27000000e+02 
528.605  2.30000000e+02 
528.569  2.42000000e+02 
528.533  2.05000000e+02 
528.497  2.34000000e+02 
528.461  2.35000000e+02 
528.426  2.10000000e+02 
528.390  2.06000000e+02 
528.354  2.24000000e+02 
528.318  2.28000000e+02 
528.282  2.51000000e+02 
528.246  2.07000000e+02 
528.210  2.33000000e+02 
528.174  2.19000000e+02 
528.138  2.20000000e+02 
528.102  1.86000000e+02 
528.066  2.21000000e+02 
528.030  2.31000000e+02 
527.994  2.11000000e+02 
527.958  2.43000000e+02 
527.923  2.36000000e+02 
527.887  2.26000000e+02 
527.851  2.16000000e+02 
527.815  2.04000000e+02 
527.779  2.06000000e+02 
527.743  2.03000000e+02 
527.707  2.20000000e+02 
527.671  2.48000000e+02 
527.635  2.21000000e+02 
527.599  2.28000000e+02 
527.563  2.28000000e+02 
527.527  2.13000000e+02 
527.491  2.07000000e+02 
527.456  1.92000000e+02 
527.420  2.09000000e+02 
527.384  2.14000000e+02 
527.348  1.84000000e+02 
527.312  2.03000000e+02 
527.276  2.42000000e+02 
527.240  2.25000000e+02 
527.204  2.09000000e+02 
527.168  2.00000000e+02 
527.132  1.94000000e+02 
527.096  2.32000000e+02 
527.060  2.10000000e+02 
527.024  2.13000000e+02 
526.989  1.99000000e+02 
526.953  2.42000000e+02 
526.917  2.10000000e+02 
526.881  2.21000000e+02 
526.845  2.31000000e+02 
526.809  1.99000000e+02 
526.773  2.18000000e+02 
526.737  2.24000000e+02 
526.701  2.32000000e+02 
526.665  2.13000000e+02 
526.629  2.43000000e+02 
526.593  2.23000000e+02 
526.557  2.20000000e+02 
526.522  2.21000000e+02 
526.486  2.24000000e+02 
526.450  2.19000000e+02 
526.414  2.19000000e+02 
526.378  2.16000000e+02 
526.342  2.15000000e+02 
526.306  2.17000000e+02 
526.270  2.14000000e+02 
526.234  2.22000000e+02 
526.198  2.26000000e+02 
526.162  2.07000000e+02 
526.126  2.13000000e+02 
526.090  2.11000000e+02 
526.055  2.02000000e+02 
526.019  2.50000000e+02 
525.983  2.28000000e+02 
525.947  2.26000000e+02 
525.911  1.92000000e+02 
525.875  2.22000000e+02 
525.839  2.08000000e+02 
525.803  2.28000000e+02 
525.767  2.24000000e+02 
525.731  1.97000000e+02 
525.695  2.40000000e+02 
525.659  2.12000000e+02 
525.623  2.03000000e+02 
525.587  2.49000000e+02 
525.552  2.27000000e+02 
525.516  2.56000000e+02 
525.480  2.51000000e+02 
525.444  2.08000000e+02 
525.408  2.08000000e+02 
525.372  2.36000000e+02 
525.336  2.26000000e+02 
525.300  2.02000000e+02 
525.264  2.55000000e+02 
525.228  1.93000000e+02 
525.192  2.08000000e+02 
525.156  2.24000000e+02 
525.120  1.79000000e+02 
525.085  2.17000000e+02 
525.049  2.24000000e+02 
525.013  2.29000000e+02 
[ Region 2 Curve ]
BEcenter= 643.000 
BEwidth= -11.959 
Excitation= 1486.600
Time_p_channel= 64.000  
Size= 334
648.979  4.78000000e+02 
648.944  4.30000000e+02 
648.908  4.69000000e+02 
648.872  4.62000000e+02 
648.836  4.84000000e+02 
648.800  4.56000000e+02 
648.764  4.62000000e+02 
648.728  4.61000000e+02 
648.692  4.88000000e+02 
648.656  4.93000000e+02 
648.620  4.70000000e+02 
648.584  4.47000000e+02 
648.549  4.57000000e+02 
648.513  4.98000000e+02 
648.477  4.42000000e+02 
648.441  4.91000000e+02 
648.405  4.64000000e+02 
648.369  4.90000000e+02 
648.333  4.34000000e+02 
648.297  4.66000000e+02 
648.261  5.20000000e+02 
648.225  4.42000000e+02 
648.189  4.59000000e+02 
648.153  4.75000000e+02 
648.118  4.51000000e+02 
648.082  4.63000000e+02 
648.046  4.35000000e+02 
648.010  4.38000000e+02 
647.974  4.98000000e+02 
647.938  4.29000000e+02 
647.902  4.72000000e+02 
647.866  4.70000000e+02 
647.830  4.72000000e+02 
647.794  4.45000000e+02 
647.758  4.87000000e+02 
647.723  4.91000000e+02 
647.687  4.42000000e+02 
647.651  4.64000000e+02 
647.615  5.12000000e+02 
647.579  4.86000000e+02 
647.543  4.52000000e+02 
647.507  4.66000000e+02 
647.471  4.58000000e+02 
647.435  4.51000000e+02 
647.399  4.55000000e+02 
647.363  4.85000000e+02 
647.328  4.36000000e+02 
647.292  4.62000000e+02 
647.256  4.56000000e+02 
647.220  4.09000000e+02 
647.184  4.68000000e+02 
647.148  4.78000000e+02 
647.112  4.70000000e+02 
647.076  4.52000000e+02 
647.040  4.90000000e+02 
647.004  4.41000000e+02 
646.968  4.71000000e+02 
646.932  4.24000000e+02 
646.897  4.34000000e+02 
646.861  4.80000000e+02 
646.825  4.87000000e+02 
646.789  4.78000000e+02 
646.753  4.79000000e+02 
646.717  4.39000000e+02 
646.681  4.60000000e+02 
646.645  4.46000000e+02 
646.609  4.62000000e+02 
646.573  4.54000000e+02 
646.537  4.72000000e+02 
646.502  5.05000000e+02 
646.466  4.20000000e+02 
646.430  4.27000000e+02 
646.394  4.79000000e+02 
646.358  4.91000000e+02 
646.322  4.61000000e+02 
646.286  4.39000000e+02 
646.250  4.80000000e+02 
646.214  5.02000000e+02 
646.178  5.13000000e+02 
646.142  5.08000000e+02 
646.106  5.13000000e+02 
646.071  4.72000000e+02 
646.035  4.68000000e+02 
645.999  4.62000000e+02 
645.963  4.77000000e+02 
645.927  5.24000000e+02 
645.891  4.92000000e+02 
645.855  4.54000000e+02 
645.819  4.90000000e+02 
645.783  4.31000000e+02 
645.747  4.87000000e+02 
645.711  4.73000000e+02 
645.676  5.08000000e+02 
645.640  4.58000000e+02 
645.604  4.75000000e+02 
645.568  4.51000000e+02 
645.532  4.31000000e+02 
645.496  4.95000000e+02 
645.460  4.61000000e+02 
645.424  4.43000000e+02 
645.388  4.66000000e+02 
645.352  4.55000000e+02 
645.316  5.20000000e+02 
645.280  4.47000000e+02 
645.245  5.09000000e+02 
645.209  4.85000000e+02 
645.173  4.66000000e+02 
645.137  4.97000000e+02 
645.101  4.57000000e+02 
645.065  4.62000000e+02 
645.029  4.45000000e+02 
644.993  4.59000000e+02 
644.957  4.83000000e+02 
644.921  4.78000000e+02 
644.885  4.92000000e+02 
644.850  4.80000000e+02 
644.814  4.59000000e+02 
644.778  4.80000000e+02 
644.742  5.13000000e+02 
644.706  4.83000000e+02 
644.670  4.94000000e+02 
644.634  5.00000000e+02 
644.598  5.23000000e+02 
644.562  4.57000000e+02 
644.526  5.02000000e+02 
644.490  5.12000000e+02 
644.454  5.22000000e+02 
644.419  4.95000000e+02 
644.383  4.77000000e+02 
644.347  5.21000000e+02 
644.311  4.87000000e+02 
644.275  5.39000000e+02 
644.239  4.59000000e+02 
644.203  5.07000000e+02 
644.167  4.70000000e+02 
644.131  5.23000000e+02 
644.095  5.03000000e+02 
644.059  5.50000000e+02 
644.024  5.24000000e+02 
643.988  5.14000000e+02 
643.952  4.85000000e+02 
643.916  5.14000000e+02 
643.880  5.21000000e+02 
643.844  5.38000000e+02 
643.808  4.94000000e+02 
643.772  4.88000000e+02 
643.736  4.98000000e+02 
643.700  5.18000000e+02 
643.664  5.14000000e+02 
643.628  5.50000000e+02 
643.593  5.27000000e+02 
643.557  4.97000000e+02 
643.521  4.77000000e+02 
643.485  5.45000000e+02 
643.449  5.33000000e+02 
643.413  5.28000000e+02 
643.377  5.41000000e+02 
643.341  5.59000000e+02 
643.305  6.01000000e+02 
643.269  5.26000000e+02 
643.233  5.49000000e+02 
643.198  5.36000000e+02 
643.162  5.30000000e+02 
643.126  5.25000000e+02 
643.090  5.65000000e+02 
643.054  5.36000000e+02 
643.018  4.83000000e+02 
642.982  5.08000000e+02 
642.946  5.63000000e+02 
642.910  5.24000000e+02 
642.874  5.33000000e+02 
642.838  5.59000000e+02 
642.802  5.43000000e+02 
642.767  5.32000000e+02 
642.731  5.27000000e+02 
642.695  5.32000000e+02 
642.659  5.35000000e+02 
642.623  5.47000000e+02 
642.587  5.39000000e+02 
642.551  5.40000000e+02 
642.515  5.27000000e+02 
642.479  5.32000000e+02 
642.443  5.42000000e+02 
642.407  5.56000000e+02 
642.372  5.32000000e+02 
642.336  6.19000000e+02 
642.300  4.91000000e+02 
642.264  5.32000000e+02 
642.228  5.51000000e+02 
642.192  5.13000000e+02 
642.156  5.09000000e+02 
642.120  4.89000000e+02 
642.084  5.11000000e+02 
642.048  5.64000000e+02 
642.012  5.61000000e+02 
641.976  4.97000000e+02 
641.941  5.21000000e+02 
641.905  5.10000000e+02 
641.869  5.10000000e+02 
641.833  5.24000000e+02 
641.797  5.29000000e+02 
641.761  4.94000000e+02 
641.725  4.94000000e+02 
641.689  4.95000000e+02 
641.653  5.11000000e+02 
641.617  5.56000000e+02 
641.581  5.12000000e+02 
641.546  4.88000000e+02 
641.510  4.99000000e+02 
641.474  4.83000000e+02 
641.438  5.36000000e+02 
641.402  5.01000000e+02 
641.366  5.26000000e+02 
641.330  5.56000000e+02 
641.294  4.88000000e+02 
641.258  4.85000000e+02 
641.222  5.17000000e+02 
641.186  5.20000000e+02 
641.150  5.08000000e+02 
641.115  4.83000000e+02 
641.079  4.51000000e+02 
641.043  4.95000000e+02 
641.007  5.41000000e+02 
640.971  4.73000000e+02 
640.935  4.59000000e+02 
640.899  5.03000000e+02 
640.863  4.80000000e+02 
640.827  5.01000000e+02 
640.791  4.75000000e+02 
640.755  4.50000000e+02 
640.720  4.40000000e+02 
640.684  4.41000000e+02 
640.648  4.78000000e+02 
640.612  4.85000000e+02 
640.576  4.61000000e+02 
640.540  4.36000000e+02 
640.504  4.14000000e+02 
640.468  4.59000000e+02 
640.432  4.39000000e+02 
640.396  4.72000000e+02 
640.360  4.24000000e+02 
640.324  4.40000000e+02 
640.289  4.42000000e+02 
640.253  4.07000000e+02 
640.217  4.26000000e+02 
640.181  4.55000000e+02 
640.145  4.21000000e+02 
640.109  4.53000000e+02 
640.073  4.28000000e+02 
640.037  4.41000000e+02 
640.001  4.39000000e+02 
639.965  4.41000000e+02 
639.929  4.30000000e+02 
639.894  4.57000000e+02 
639.858  4.20000000e+02 
639.822  4.33000000e+02 
639.786  4.19000000e+02 
639.750  4.42000000e+02 
639.714  4.49000000e+02 
639.678  4.44000000e+02 
639.642  4.17000000e+02 
639.606  4.41000000e+02 
639.570  4.49000000e+02 
639.534  4.52000000e+02 
639.498  3.98000000e+02 
639.463  4.21000000e+02 
639.427  3.92000000e+02 
639.391  4.41000000e+02 
639.355  4.22000000e+02 
639.319  4.23000000e+02 
639.283  4.16000000e+02 
639.247  4.06000000e+02 
639.211  4.12000000e+02 
639.175  4.07000000e+02 
639.139  4.27000000e+02 
639.103  4.05000000e+02 
639.068  4.26000000e+02 
639.032  4.46000000e+02 
638.996  4.46000000e+02 
638.960  4.18000000e+02 
638.924  4.55000000e+02 
638.888  4.31000000e+02 
638.852  4.00000000e+02 
638.816  4.23000000e+02 
638.780  4.15000000e+02 
638.744  4.24000000e+02 
638.708  4.16000000e+02 
638.672  3.96000000e+02 
638.637  4.15000000e+02 
638.601  4.37000000e+02 
638.565  4.29000000e+02 
638.529  4.45000000e+02 
638.493  4.43000000e+02 
638.457  4.61000000e+02 
638.421  3.95000000e+02 
638.385  3.95000000e+02 
638.349  4.16000000e+02 
638.313  4.09000000e+02 
638.277  4.15000000e+02 
638.242  4.17000000e+02 
638.206  4.27000000e+02 
638.170  3.90000000e+02 
638.134  4.39000000e+02 
638.098  3.97000000e+02 
638.062  4.14000000e+02 
638.026  3.98000000e+02 
637.990  4.41000000e+02 
637.954  4.49000000e+02 
637.918  4.01000000e+02 
637.882  3.98000000e+02 
637.847  3.99000000e+02 
637.811  4.45000000e+02 
637.775  4.21000000e+02 
637.739  4.21000000e+02 
637.703  4.34000000e+02 
637.667  4.36000000e+02 
637.631  3.84000000e+02 
637.595  3.98000000e+02 
637.559  4.47000000e+02 
637.523  4.61000000e+02 
637.487  4.00000000e+02 
637.451  4.17000000e+02 
637.416  4.25000000e+02 
637.380  4.30000000e+02 
637.344  3.98000000e+02 
637.308  4.14000000e+02 
637.272  4.33000000e+02 
637.236  4.21000000e+02 
637.200  4.41000000e+02 
637.164  4.24000000e+02 
637.128  4.27000000e+02 
637.092  3.98000000e+02 
637.056  4.13000000e+02 
637.021  4.38000000e+02 
