[ Experiment Parameters ]
Experiment Description= <none> 
Number_of_Regions_in_Experiment= 1 

Original_File_name= c:\alexesca\data\97071010.xps 
Instrument= ESCA-West
Date= 07-10-1997
Time=  08:30:42

[ Region 1 Parameters ]
Region_Description = au 4f dithered                     
BEcenter(eV) = 85.000000
BEwidth(eV) = 8.000000
BEstep(eV) = 0.107813
Dwell_Time(sec) = 0.500000
N_o_scans = 1  
N_o_Channels = 74  
Excitation_Energy = 0.000000  
Scan_mode = 0  (DITHERED)

[ Region 1 Curve ]
BEcenter= 85.000  
BEwidth= -7.838  
Excitation= 1486.600
Time_p_channel= 384.000 
Size= 74
88.919   1.01800000e+03 
88.812   1.11300000e+03 
88.704   1.19600000e+03 
88.597   1.34400000e+03 
88.489   1.51300000e+03 
88.382   1.73300000e+03 
88.275   1.96000000e+03 
88.167   2.23600000e+03 
88.060   2.59300000e+03 
87.953   2.86800000e+03 
87.845   3.32100000e+03 
87.738   3.69500000e+03 
87.631   3.96900000e+03 
87.523   4.08400000e+03 
87.416   4.14800000e+03 
87.308   3.82500000e+03 
87.201   3.18000000e+03 
87.094   2.68800000e+03 
86.986   2.12400000e+03 
86.879   1.64500000e+03 
86.772   1.30900000e+03 
86.664   1.16000000e+03 
86.557   9.94000000e+02 
86.449   9.51000000e+02 
86.342   8.68000000e+02 
86.235   8.36000000e+02 
86.127   8.76000000e+02 
86.020   7.90000000e+02 
85.913   9.20000000e+02 
85.805   8.91000000e+02 
85.698   9.95000000e+02 
85.591   1.02300000e+03 
85.483   1.13100000e+03 
85.376   1.19500000e+03 
85.268   1.33400000e+03 
85.161   1.53000000e+03 
85.054   1.62800000e+03 
84.946   1.96600000e+03 
84.839   2.15200000e+03 
84.732   2.32200000e+03 
84.624   2.60000000e+03 
84.517   2.75600000e+03 
84.409   3.15200000e+03 
84.302   3.65300000e+03 
84.195   3.97200000e+03 
84.087   4.28600000e+03 
83.980   4.52600000e+03 
83.873   4.66800000e+03 
83.765   4.42700000e+03 
83.658   3.97000000e+03 
83.551   3.37500000e+03 
83.443   2.51700000e+03 
83.336   2.00400000e+03 
83.228   1.49900000e+03 
83.121   1.15100000e+03 
83.014   8.75000000e+02 
82.906   7.19000000e+02 
82.799   6.54000000e+02 
82.692   5.74000000e+02 
82.584   4.72000000e+02 
82.477   5.06000000e+02 
82.369   4.67000000e+02 
82.262   4.00000000e+02 
82.155   3.49000000e+02 
82.047   3.67000000e+02 
81.940   3.22000000e+02 
81.833   3.06000000e+02 
81.725   2.93000000e+02 
81.618   2.84000000e+02 
81.511   2.66000000e+02 
81.403   2.73000000e+02 
81.296   2.80000000e+02 
81.188   2.73000000e+02 
81.081   2.70000000e+02 
