[ Experiment Parameters ]
Experiment Description= <none> 
Number_of_Regions_in_Experiment= 2 

Original_File_name= c:\alexesca\data\97073114.xps 
Instrument= ESCA-West
Date= 07-30-1997
Time=  21:16:49

[ Region 1 Parameters ]
Region_Description = O for XPD                          
BEcenter(eV) = 532.000000
BEwidth(eV) = 14.000000
BEstep(eV) = 0.035938
Dwell_Time(sec) = 0.250000
N_o_scans = 1  
N_o_Channels = 390  
Excitation_Energy = -0.000000  
Scan_mode = 0  (DITHERED)

[ Region 2 Parameters ]
Region_Description = Mn for XPD                         
BEcenter(eV) = 643.000000
BEwidth(eV) = 12.000000
BEstep(eV) = 0.035938
Dwell_Time(sec) = 0.250000
N_o_scans = 1  
N_o_Channels = 334  
Excitation_Energy = -0.000000  
Scan_mode = 0  (DITHERED)

[ Region 1 Curve ]
BEcenter= 532.000 
BEwidth= -13.975 
Excitation= 1486.600
Time_p_channel= 64.000  
Size= 390
538.987  2.25000000e+02 
538.951  2.46000000e+02 
538.915  2.22000000e+02 
538.880  2.50000000e+02 
538.844  2.45000000e+02 
538.808  2.26000000e+02 
538.772  2.39000000e+02 
538.736  2.47000000e+02 
538.700  2.40000000e+02 
538.664  2.58000000e+02 
538.628  2.31000000e+02 
538.592  2.18000000e+02 
538.556  2.22000000e+02 
538.520  2.50000000e+02 
538.484  2.65000000e+02 
538.448  2.23000000e+02 
538.413  2.66000000e+02 
538.377  2.50000000e+02 
538.341  2.82000000e+02 
538.305  2.38000000e+02 
538.269  2.16000000e+02 
538.233  2.12000000e+02 
538.197  2.47000000e+02 
538.161  2.54000000e+02 
538.125  2.44000000e+02 
538.089  2.66000000e+02 
538.053  2.55000000e+02 
538.017  2.34000000e+02 
537.981  2.25000000e+02 
537.945  2.67000000e+02 
537.910  2.20000000e+02 
537.874  2.35000000e+02 
537.838  2.53000000e+02 
537.802  2.51000000e+02 
537.766  2.56000000e+02 
537.730  2.40000000e+02 
537.694  2.22000000e+02 
537.658  2.48000000e+02 
537.622  2.37000000e+02 
537.586  2.34000000e+02 
537.550  2.28000000e+02 
537.514  2.36000000e+02 
537.478  2.45000000e+02 
537.443  2.28000000e+02 
537.407  2.13000000e+02 
537.371  2.61000000e+02 
537.335  2.54000000e+02 
537.299  2.06000000e+02 
537.263  2.49000000e+02 
537.227  2.48000000e+02 
537.191  2.32000000e+02 
537.155  2.49000000e+02 
537.119  2.52000000e+02 
537.083  2.45000000e+02 
537.047  2.57000000e+02 
537.011  2.42000000e+02 
536.976  2.52000000e+02 
536.940  2.64000000e+02 
536.904  2.39000000e+02 
536.868  2.33000000e+02 
536.832  2.31000000e+02 
536.796  2.66000000e+02 
536.760  2.77000000e+02 
536.724  2.74000000e+02 
536.688  2.65000000e+02 
536.652  2.78000000e+02 
536.616  2.68000000e+02 
536.580  2.46000000e+02 
536.544  2.81000000e+02 
536.509  2.47000000e+02 
536.473  2.77000000e+02 
536.437  2.91000000e+02 
536.401  2.87000000e+02 
536.365  2.71000000e+02 
536.329  2.73000000e+02 
536.293  2.92000000e+02 
536.257  2.97000000e+02 
536.221  2.99000000e+02 
536.185  3.15000000e+02 
536.149  3.10000000e+02 
536.113  3.15000000e+02 
536.077  3.24000000e+02 
536.042  3.12000000e+02 
536.006  3.37000000e+02 
535.970  3.25000000e+02 
535.934  2.85000000e+02 
535.898  3.11000000e+02 
535.862  3.50000000e+02 
535.826  3.74000000e+02 
535.790  3.57000000e+02 
535.754  3.48000000e+02 
535.718  3.60000000e+02 
535.682  4.22000000e+02 
535.646  3.84000000e+02 
535.610  4.00000000e+02 
535.574  4.41000000e+02 
535.539  4.14000000e+02 
535.503  4.19000000e+02 
535.467  3.95000000e+02 
535.431  4.67000000e+02 
535.395  4.24000000e+02 
535.359  4.66000000e+02 
535.323  4.44000000e+02 
535.287  4.86000000e+02 
535.251  4.81000000e+02 
535.215  5.10000000e+02 
535.179  5.16000000e+02 
535.143  5.47000000e+02 
535.107  5.35000000e+02 
535.072  5.37000000e+02 
535.036  5.28000000e+02 
535.000  5.28000000e+02 
534.964  5.92000000e+02 
534.928  5.64000000e+02 
534.892  6.28000000e+02 
534.856  6.41000000e+02 
534.820  5.92000000e+02 
534.784  5.90000000e+02 
534.748  6.56000000e+02 
534.712  6.47000000e+02 
534.676  6.36000000e+02 
534.640  7.17000000e+02 
534.605  6.62000000e+02 
534.569  7.15000000e+02 
534.533  7.09000000e+02 
534.497  7.03000000e+02 
534.461  7.45000000e+02 
534.425  7.31000000e+02 
534.389  7.94000000e+02 
534.353  7.32000000e+02 
534.317  7.79000000e+02 
534.281  7.62000000e+02 
534.245  7.83000000e+02 
534.209  7.87000000e+02 
534.173  8.27000000e+02 
534.138  8.31000000e+02 
534.102  8.21000000e+02 
534.066  8.42000000e+02 
534.030  8.72000000e+02 
533.994  8.50000000e+02 
533.958  8.70000000e+02 
533.922  8.90000000e+02 
533.886  8.37000000e+02 
533.850  9.25000000e+02 
533.814  9.34000000e+02 
533.778  9.85000000e+02 
533.742  9.37000000e+02 
533.706  9.46000000e+02 
533.670  9.63000000e+02 
533.635  9.16000000e+02 
533.599  9.40000000e+02 
533.563  9.63000000e+02 
533.527  9.37000000e+02 
533.491  9.65000000e+02 
533.455  9.43000000e+02 
533.419  8.96000000e+02 
533.383  9.40000000e+02 
533.347  8.71000000e+02 
533.311  9.34000000e+02 
533.275  9.31000000e+02 
533.239  9.45000000e+02 
533.203  8.81000000e+02 
533.168  8.57000000e+02 
533.132  8.57000000e+02 
533.096  8.71000000e+02 
533.060  9.16000000e+02 
533.024  8.40000000e+02 
532.988  8.37000000e+02 
532.952  8.60000000e+02 
532.916  7.86000000e+02 
532.880  7.63000000e+02 
532.844  7.74000000e+02 
532.808  8.00000000e+02 
532.772  7.53000000e+02 
532.736  7.20000000e+02 
532.701  7.80000000e+02 
532.665  6.95000000e+02 
532.629  6.86000000e+02 
532.593  7.03000000e+02 
532.557  6.77000000e+02 
532.521  6.61000000e+02 
532.485  6.43000000e+02 
532.449  6.74000000e+02 
532.413  6.22000000e+02 
532.377  6.11000000e+02 
532.341  6.00000000e+02 
532.305  5.98000000e+02 
532.269  6.18000000e+02 
532.234  5.65000000e+02 
532.198  5.40000000e+02 
532.162  5.47000000e+02 
532.126  5.35000000e+02 
532.090  5.06000000e+02 
532.054  4.45000000e+02 
532.018  5.05000000e+02 
531.982  4.96000000e+02 
531.946  4.96000000e+02 
531.910  4.61000000e+02 
531.874  4.63000000e+02 
531.838  4.36000000e+02 
531.802  4.34000000e+02 
531.766  4.40000000e+02 
531.731  4.37000000e+02 
531.695  4.24000000e+02 
531.659  4.44000000e+02 
531.623  4.60000000e+02 
531.587  3.83000000e+02 
531.551  4.06000000e+02 
531.515  4.11000000e+02 
531.479  4.10000000e+02 
531.443  3.84000000e+02 
531.407  3.97000000e+02 
531.371  4.11000000e+02 
531.335  3.97000000e+02 
531.299  3.57000000e+02 
531.264  3.74000000e+02 
531.228  3.97000000e+02 
531.192  4.25000000e+02 
531.156  3.87000000e+02 
531.120  3.81000000e+02 
531.084  4.00000000e+02 
531.048  4.06000000e+02 
531.012  3.77000000e+02 
530.976  3.75000000e+02 
530.940  3.54000000e+02 
530.904  3.64000000e+02 
530.868  3.60000000e+02 
530.832  2.97000000e+02 
530.797  3.44000000e+02 
530.761  3.54000000e+02 
530.725  3.46000000e+02 
530.689  3.50000000e+02 
530.653  3.21000000e+02 
530.617  3.33000000e+02 
530.581  3.02000000e+02 
530.545  3.37000000e+02 
530.509  2.97000000e+02 
530.473  3.10000000e+02 
530.437  3.19000000e+02 
530.401  2.77000000e+02 
530.365  2.82000000e+02 
530.330  2.85000000e+02 
530.294  2.77000000e+02 
530.258  2.89000000e+02 
530.222  2.71000000e+02 
530.186  2.88000000e+02 
530.150  2.83000000e+02 
530.114  2.77000000e+02 
530.078  2.58000000e+02 
530.042  2.60000000e+02 
530.006  2.37000000e+02 
529.970  2.59000000e+02 
529.934  2.48000000e+02 
529.898  2.44000000e+02 
529.862  2.42000000e+02 
529.827  2.46000000e+02 
529.791  2.13000000e+02 
529.755  2.33000000e+02 
529.719  2.07000000e+02 
529.683  2.20000000e+02 
529.647  2.18000000e+02 
529.611  1.93000000e+02 
529.575  2.05000000e+02 
529.539  2.32000000e+02 
529.503  2.18000000e+02 
529.467  2.14000000e+02 
529.431  2.10000000e+02 
529.395  2.55000000e+02 
529.360  2.22000000e+02 
529.324  2.17000000e+02 
529.288  2.22000000e+02 
529.252  2.09000000e+02 
529.216  2.21000000e+02 
529.180  1.98000000e+02 
529.144  2.30000000e+02 
529.108  2.25000000e+02 
529.072  1.80000000e+02 
529.036  1.77000000e+02 
529.000  2.06000000e+02 
528.964  2.10000000e+02 
528.928  2.06000000e+02 
528.893  2.13000000e+02 
528.857  2.20000000e+02 
528.821  1.91000000e+02 
528.785  1.96000000e+02 
528.749  2.01000000e+02 
528.713  2.24000000e+02 
528.677  1.89000000e+02 
528.641  2.02000000e+02 
528.605  2.17000000e+02 
528.569  1.93000000e+02 
528.533  2.15000000e+02 
528.497  2.02000000e+02 
528.461  1.95000000e+02 
528.426  1.97000000e+02 
528.390  2.14000000e+02 
528.354  2.16000000e+02 
528.318  1.97000000e+02 
528.282  2.13000000e+02 
528.246  2.19000000e+02 
528.210  1.99000000e+02 
528.174  2.10000000e+02 
528.138  2.21000000e+02 
528.102  1.99000000e+02 
528.066  2.27000000e+02 
528.030  1.87000000e+02 
527.994  2.35000000e+02 
527.958  1.83000000e+02 
527.923  2.02000000e+02 
527.887  2.06000000e+02 
527.851  2.04000000e+02 
527.815  1.92000000e+02 
527.779  1.96000000e+02 
527.743  2.02000000e+02 
527.707  2.23000000e+02 
527.671  2.24000000e+02 
527.635  2.14000000e+02 
527.599  2.03000000e+02 
527.563  2.16000000e+02 
527.527  2.07000000e+02 
527.491  2.18000000e+02 
527.456  2.24000000e+02 
527.420  1.97000000e+02 
527.384  1.87000000e+02 
527.348  2.14000000e+02 
527.312  1.96000000e+02 
527.276  2.29000000e+02 
527.240  2.08000000e+02 
527.204  2.13000000e+02 
527.168  1.98000000e+02 
527.132  2.11000000e+02 
527.096  2.05000000e+02 
527.060  2.16000000e+02 
527.024  2.11000000e+02 
526.989  2.29000000e+02 
526.953  2.13000000e+02 
526.917  2.00000000e+02 
526.881  1.98000000e+02 
526.845  2.21000000e+02 
526.809  1.97000000e+02 
526.773  2.14000000e+02 
526.737  2.20000000e+02 
526.701  1.99000000e+02 
526.665  2.07000000e+02 
526.629  2.08000000e+02 
526.593  2.26000000e+02 
526.557  2.07000000e+02 
526.522  1.93000000e+02 
526.486  1.91000000e+02 
526.450  2.16000000e+02 
526.414  2.00000000e+02 
526.378  2.11000000e+02 
526.342  2.21000000e+02 
526.306  2.26000000e+02 
526.270  1.90000000e+02 
526.234  2.03000000e+02 
526.198  1.77000000e+02 
526.162  1.97000000e+02 
526.126  2.06000000e+02 
526.090  2.21000000e+02 
526.055  2.18000000e+02 
526.019  1.94000000e+02 
525.983  1.84000000e+02 
525.947  2.09000000e+02 
525.911  2.06000000e+02 
525.875  2.14000000e+02 
525.839  2.18000000e+02 
525.803  2.31000000e+02 
525.767  2.03000000e+02 
525.731  2.15000000e+02 
525.695  2.11000000e+02 
525.659  2.07000000e+02 
525.623  2.03000000e+02 
525.587  1.98000000e+02 
525.552  2.07000000e+02 
525.516  2.08000000e+02 
525.480  2.06000000e+02 
525.444  2.25000000e+02 
525.408  2.03000000e+02 
525.372  1.94000000e+02 
525.336  1.95000000e+02 
525.300  1.99000000e+02 
525.264  2.07000000e+02 
525.228  1.94000000e+02 
525.192  2.03000000e+02 
525.156  1.69000000e+02 
525.120  2.12000000e+02 
525.085  2.01000000e+02 
525.049  2.11000000e+02 
525.013  2.10000000e+02 
[ Region 2 Curve ]
BEcenter= 643.000 
BEwidth= -11.959 
Excitation= 1486.600
Time_p_channel= 64.000  
Size= 334
648.979  4.09000000e+02 
648.944  4.41000000e+02 
648.908  4.19000000e+02 
648.872  4.30000000e+02 
648.836  4.50000000e+02 
648.800  4.29000000e+02 
648.764  3.93000000e+02 
648.728  3.81000000e+02 
648.692  4.18000000e+02 
648.656  4.12000000e+02 
648.620  4.09000000e+02 
648.584  4.20000000e+02 
648.549  4.29000000e+02 
648.513  4.19000000e+02 
648.477  4.30000000e+02 
648.441  4.25000000e+02 
648.405  4.42000000e+02 
648.369  4.05000000e+02 
648.333  4.30000000e+02 
648.297  4.24000000e+02 
648.261  4.76000000e+02 
648.225  3.94000000e+02 
648.189  4.14000000e+02 
648.153  4.59000000e+02 
648.118  4.25000000e+02 
648.082  4.35000000e+02 
648.046  4.12000000e+02 
648.010  4.24000000e+02 
647.974  4.60000000e+02 
647.938  4.58000000e+02 
647.902  4.22000000e+02 
647.866  4.02000000e+02 
647.830  4.33000000e+02 
647.794  4.24000000e+02 
647.758  4.34000000e+02 
647.723  4.35000000e+02 
647.687  4.27000000e+02 
647.651  4.10000000e+02 
647.615  4.43000000e+02 
647.579  4.14000000e+02 
647.543  4.52000000e+02 
647.507  4.41000000e+02 
647.471  4.27000000e+02 
647.435  4.34000000e+02 
647.399  3.98000000e+02 
647.363  4.04000000e+02 
647.328  4.24000000e+02 
647.292  4.24000000e+02 
647.256  3.81000000e+02 
647.220  3.93000000e+02 
647.184  4.33000000e+02 
647.148  3.98000000e+02 
647.112  4.24000000e+02 
647.076  4.36000000e+02 
647.040  4.29000000e+02 
647.004  4.18000000e+02 
646.968  4.04000000e+02 
646.932  4.30000000e+02 
646.897  4.29000000e+02 
646.861  4.28000000e+02 
646.825  4.42000000e+02 
646.789  4.53000000e+02 
646.753  4.60000000e+02 
646.717  3.98000000e+02 
646.681  4.01000000e+02 
646.645  4.32000000e+02 
646.609  4.28000000e+02 
646.573  4.36000000e+02 
646.537  4.12000000e+02 
646.502  4.61000000e+02 
646.466  4.24000000e+02 
646.430  4.19000000e+02 
646.394  4.31000000e+02 
646.358  4.20000000e+02 
646.322  4.16000000e+02 
646.286  4.14000000e+02 
646.250  3.94000000e+02 
646.214  4.40000000e+02 
646.178  4.59000000e+02 
646.142  4.22000000e+02 
646.106  4.23000000e+02 
646.071  4.03000000e+02 
646.035  4.23000000e+02 
645.999  4.42000000e+02 
645.963  4.34000000e+02 
645.927  4.41000000e+02 
645.891  4.15000000e+02 
645.855  4.39000000e+02 
645.819  3.72000000e+02 
645.783  4.02000000e+02 
645.747  4.35000000e+02 
645.711  4.36000000e+02 
645.676  4.79000000e+02 
645.640  4.57000000e+02 
645.604  4.29000000e+02 
645.568  4.30000000e+02 
645.532  4.52000000e+02 
645.496  3.96000000e+02 
645.460  4.21000000e+02 
645.424  4.37000000e+02 
645.388  4.24000000e+02 
645.352  4.09000000e+02 
645.316  4.17000000e+02 
645.280  4.34000000e+02 
645.245  4.60000000e+02 
645.209  3.93000000e+02 
645.173  4.65000000e+02 
645.137  4.06000000e+02 
645.101  4.04000000e+02 
645.065  4.44000000e+02 
645.029  4.10000000e+02 
644.993  4.36000000e+02 
644.957  4.51000000e+02 
644.921  4.49000000e+02 
644.885  4.38000000e+02 
644.850  4.75000000e+02 
644.814  4.46000000e+02 
644.778  4.57000000e+02 
644.742  4.62000000e+02 
644.706  4.32000000e+02 
644.670  4.23000000e+02 
644.634  4.43000000e+02 
644.598  4.65000000e+02 
644.562  4.46000000e+02 
644.526  4.86000000e+02 
644.490  4.27000000e+02 
644.454  4.31000000e+02 
644.419  4.85000000e+02 
644.383  4.34000000e+02 
644.347  4.51000000e+02 
644.311  4.79000000e+02 
644.275  4.54000000e+02 
644.239  4.73000000e+02 
644.203  4.61000000e+02 
644.167  4.57000000e+02 
644.131  4.74000000e+02 
644.095  4.75000000e+02 
644.059  4.72000000e+02 
644.024  4.32000000e+02 
643.988  4.85000000e+02 
643.952  4.81000000e+02 
643.916  4.41000000e+02 
643.880  4.39000000e+02 
643.844  4.80000000e+02 
643.808  4.71000000e+02 
643.772  4.58000000e+02 
643.736  4.55000000e+02 
643.700  4.82000000e+02 
643.664  4.71000000e+02 
643.628  4.63000000e+02 
643.593  5.10000000e+02 
643.557  4.47000000e+02 
643.521  4.55000000e+02 
643.485  4.62000000e+02 
643.449  4.63000000e+02 
643.413  4.67000000e+02 
643.377  5.19000000e+02 
643.341  4.63000000e+02 
643.305  4.85000000e+02 
643.269  4.65000000e+02 
643.233  4.46000000e+02 
643.198  4.76000000e+02 
643.162  4.56000000e+02 
643.126  5.14000000e+02 
643.090  4.88000000e+02 
643.054  4.91000000e+02 
643.018  4.78000000e+02 
642.982  4.67000000e+02 
642.946  4.74000000e+02 
642.910  5.02000000e+02 
642.874  5.08000000e+02 
642.838  5.07000000e+02 
642.802  4.51000000e+02 
642.767  4.63000000e+02 
642.731  4.83000000e+02 
642.695  4.65000000e+02 
642.659  4.85000000e+02 
642.623  4.88000000e+02 
642.587  4.98000000e+02 
642.551  4.52000000e+02 
642.515  4.69000000e+02 
642.479  5.12000000e+02 
642.443  4.75000000e+02 
642.407  4.58000000e+02 
642.372  4.45000000e+02 
642.336  4.44000000e+02 
642.300  4.57000000e+02 
642.264  4.72000000e+02 
642.228  4.81000000e+02 
642.192  4.39000000e+02 
642.156  4.63000000e+02 
642.120  4.97000000e+02 
642.084  4.74000000e+02 
642.048  4.56000000e+02 
642.012  4.66000000e+02 
641.976  4.74000000e+02 
641.941  4.67000000e+02 
641.905  5.03000000e+02 
641.869  4.42000000e+02 
641.833  4.65000000e+02 
641.797  4.17000000e+02 
641.761  4.50000000e+02 
641.725  4.89000000e+02 
641.689  4.69000000e+02 
641.653  4.70000000e+02 
641.617  4.79000000e+02 
641.581  4.62000000e+02 
641.546  4.48000000e+02 
641.510  4.54000000e+02 
641.474  4.34000000e+02 
641.438  4.88000000e+02 
641.402  4.64000000e+02 
641.366  4.56000000e+02 
641.330  4.26000000e+02 
641.294  4.52000000e+02 
641.258  4.63000000e+02 
641.222  4.48000000e+02 
641.186  4.10000000e+02 
641.150  4.33000000e+02 
641.115  4.67000000e+02 
641.079  4.44000000e+02 
641.043  4.47000000e+02 
641.007  4.34000000e+02 
640.971  4.49000000e+02 
640.935  4.32000000e+02 
640.899  4.39000000e+02 
640.863  4.55000000e+02 
640.827  3.95000000e+02 
640.791  4.77000000e+02 
640.755  4.24000000e+02 
640.720  3.86000000e+02 
640.684  4.09000000e+02 
640.648  4.01000000e+02 
640.612  4.21000000e+02 
640.576  4.24000000e+02 
640.540  4.27000000e+02 
640.504  4.73000000e+02 
640.468  4.28000000e+02 
640.432  4.00000000e+02 
640.396  4.20000000e+02 
640.360  4.22000000e+02 
640.324  3.80000000e+02 
640.289  3.97000000e+02 
640.253  4.15000000e+02 
640.217  4.04000000e+02 
640.181  3.87000000e+02 
640.145  4.02000000e+02 
640.109  3.78000000e+02 
640.073  3.69000000e+02 
640.037  4.09000000e+02 
640.001  4.26000000e+02 
639.965  4.02000000e+02 
639.929  4.15000000e+02 
639.894  3.88000000e+02 
639.858  4.03000000e+02 
639.822  3.79000000e+02 
639.786  4.14000000e+02 
639.750  4.01000000e+02 
639.714  3.72000000e+02 
639.678  3.95000000e+02 
639.642  3.83000000e+02 
639.606  3.54000000e+02 
639.570  3.95000000e+02 
639.534  3.98000000e+02 
639.498  3.89000000e+02 
639.463  4.11000000e+02 
639.427  3.93000000e+02 
639.391  3.66000000e+02 
639.355  3.89000000e+02 
639.319  3.93000000e+02 
639.283  3.90000000e+02 
639.247  3.85000000e+02 
639.211  4.16000000e+02 
639.175  3.90000000e+02 
639.139  3.86000000e+02 
639.103  3.96000000e+02 
639.068  3.68000000e+02 
639.032  3.97000000e+02 
638.996  3.79000000e+02 
638.960  3.78000000e+02 
638.924  3.81000000e+02 
638.888  3.67000000e+02 
638.852  3.98000000e+02 
638.816  3.71000000e+02 
638.780  3.78000000e+02 
638.744  4.27000000e+02 
638.708  4.25000000e+02 
638.672  4.03000000e+02 
638.637  3.93000000e+02 
638.601  3.59000000e+02 
638.565  3.64000000e+02 
638.529  3.94000000e+02 
638.493  4.01000000e+02 
638.457  4.04000000e+02 
638.421  3.74000000e+02 
638.385  3.69000000e+02 
638.349  4.32000000e+02 
638.313  3.49000000e+02 
638.277  3.89000000e+02 
638.242  3.48000000e+02 
638.206  4.17000000e+02 
638.170  3.71000000e+02 
638.134  3.94000000e+02 
638.098  3.97000000e+02 
638.062  3.81000000e+02 
638.026  3.84000000e+02 
637.990  4.17000000e+02 
637.954  4.13000000e+02 
637.918  4.02000000e+02 
637.882  3.85000000e+02 
637.847  3.80000000e+02 
637.811  3.93000000e+02 
637.775  3.72000000e+02 
637.739  3.91000000e+02 
637.703  3.86000000e+02 
637.667  3.84000000e+02 
637.631  4.02000000e+02 
637.595  3.93000000e+02 
637.559  3.60000000e+02 
637.523  4.33000000e+02 
637.487  3.87000000e+02 
637.451  3.64000000e+02 
637.416  3.66000000e+02 
637.380  4.19000000e+02 
637.344  3.96000000e+02 
637.308  3.81000000e+02 
637.272  4.42000000e+02 
637.236  4.01000000e+02 
637.200  3.69000000e+02 
637.164  4.09000000e+02 
637.128  4.03000000e+02 
637.092  4.10000000e+02 
637.056  4.36000000e+02 
637.021  3.61000000e+02 
