[ Experiment Parameters ]
Experiment Description= <none> 
Number_of_Regions_in_Experiment= 1 

Original_File_name= c:\alexesca\data\97071012.xps 
Instrument= ESCA-West
Date= 07-10-1997
Time=  08:34:35

[ Region 1 Parameters ]
Region_Description = au 4f dithered                     
BEcenter(eV) = 85.000000
BEwidth(eV) = 8.000000
BEstep(eV) = 0.107813
Dwell_Time(sec) = 0.500000
N_o_scans = 1  
N_o_Channels = 74  
Excitation_Energy = 0.000000  
Scan_mode = 0  (DITHERED)

[ Region 1 Curve ]
BEcenter= 85.000  
BEwidth= -7.838  
Excitation= 1486.600
Time_p_channel= 384.000 
Size= 74
88.919   1.04700000e+03 
88.812   1.15700000e+03 
88.704   1.36100000e+03 
88.597   1.53200000e+03 
88.489   1.80200000e+03 
88.382   2.05300000e+03 
88.275   2.40800000e+03 
88.167   2.88700000e+03 
88.060   3.16700000e+03 
87.953   3.31900000e+03 
87.845   3.46600000e+03 
87.738   3.28900000e+03 
87.631   2.98100000e+03 
87.523   2.56000000e+03 
87.416   2.03700000e+03 
87.308   1.58000000e+03 
87.201   1.31700000e+03 
87.094   1.08200000e+03 
86.986   8.98000000e+02 
86.879   8.71000000e+02 
86.772   7.44000000e+02 
86.664   7.34000000e+02 
86.557   6.82000000e+02 
86.449   7.14000000e+02 
86.342   7.01000000e+02 
86.235   6.79000000e+02 
86.127   7.03000000e+02 
86.020   7.33000000e+02 
85.913   7.93000000e+02 
85.805   8.45000000e+02 
85.698   9.77000000e+02 
85.591   1.07900000e+03 
85.483   1.09000000e+03 
85.376   1.41900000e+03 
85.268   1.50700000e+03 
85.161   1.68000000e+03 
85.054   1.77300000e+03 
84.946   2.00800000e+03 
84.839   2.17000000e+03 
84.732   2.55400000e+03 
84.624   2.88200000e+03 
84.517   3.25400000e+03 
84.409   3.57900000e+03 
84.302   3.72900000e+03 
84.195   3.84800000e+03 
84.087   3.56300000e+03 
83.980   3.16300000e+03 
83.873   2.52700000e+03 
83.765   2.09400000e+03 
83.658   1.51000000e+03 
83.551   1.13100000e+03 
83.443   8.55000000e+02 
83.336   6.73000000e+02 
83.228   6.20000000e+02 
83.121   5.30000000e+02 
83.014   4.05000000e+02 
82.906   3.77000000e+02 
82.799   3.66000000e+02 
82.692   3.36000000e+02 
82.584   3.13000000e+02 
82.477   3.03000000e+02 
82.369   2.71000000e+02 
82.262   3.00000000e+02 
82.155   2.64000000e+02 
82.047   2.46000000e+02 
81.940   2.55000000e+02 
81.833   2.19000000e+02 
81.725   2.38000000e+02 
81.618   2.27000000e+02 
81.511   2.15000000e+02 
81.403   2.09000000e+02 
81.296   2.11000000e+02 
81.188   2.22000000e+02 
81.081   1.74000000e+02 
