[ Experiment Parameters ]
Experiment Description= <none> 
Number_of_Regions_in_Experiment= 1 

Original_File_name= c:\alexesca\data\97072402.xps 
Instrument= ESCA-West
Date= 07-24-1997
Time=  11:32:36

[ Region 1 Parameters ]
Region_Description = survey                             
BEcenter(eV) = 500.000000
BEwidth(eV) = 1000.000000
BEstep(eV) = 0.898438
Dwell_Time(sec) = 1.500000
N_o_scans = 1  
N_o_Channels = 1113  
Excitation_Energy = 0.000000  
Scan_mode = 0  (DITHERED)

[ Region 1 Curve ]
BEcenter= 500.000 
BEwidth= -998.828
Excitation= 1486.600
Time_p_channel= 15.360  
Size= 1113
999.414  6.99000000e+02 
998.516  6.64000000e+02 
997.618  6.65000000e+02 
996.719  7.01000000e+02 
995.821  7.13000000e+02 
994.923  6.48000000e+02 
994.025  6.99000000e+02 
993.126  7.50000000e+02 
992.228  7.23000000e+02 
991.330  6.82000000e+02 
990.432  6.78000000e+02 
989.534  6.93000000e+02 
988.635  7.41000000e+02 
987.737  7.28000000e+02 
986.839  7.52000000e+02 
985.941  7.26000000e+02 
985.042  7.29000000e+02 
984.144  7.25000000e+02 
983.246  6.88000000e+02 
982.348  7.19000000e+02 
981.450  6.85000000e+02 
980.551  7.02000000e+02 
979.653  6.98000000e+02 
978.755  7.17000000e+02 
977.857  6.73000000e+02 
976.958  7.14000000e+02 
976.060  7.42000000e+02 
975.162  6.69000000e+02 
974.264  7.34000000e+02 
973.365  7.11000000e+02 
972.467  7.59000000e+02 
971.569  6.96000000e+02 
970.671  6.83000000e+02 
969.773  7.23000000e+02 
968.874  6.89000000e+02 
967.976  7.21000000e+02 
967.078  7.21000000e+02 
966.180  7.07000000e+02 
965.281  7.18000000e+02 
964.383  7.65000000e+02 
963.485  7.22000000e+02 
962.587  7.25000000e+02 
961.689  7.59000000e+02 
960.790  7.40000000e+02 
959.892  6.58000000e+02 
958.994  7.05000000e+02 
958.096  6.74000000e+02 
957.197  6.68000000e+02 
956.299  6.92000000e+02 
955.401  7.60000000e+02 
954.503  7.15000000e+02 
953.604  7.22000000e+02 
952.706  6.80000000e+02 
951.808  7.00000000e+02 
950.910  6.73000000e+02 
950.012  7.19000000e+02 
949.113  6.86000000e+02 
948.215  7.53000000e+02 
947.317  7.18000000e+02 
946.419  6.82000000e+02 
945.520  6.57000000e+02 
944.622  6.51000000e+02 
943.724  7.12000000e+02 
942.826  6.95000000e+02 
941.928  6.88000000e+02 
941.029  7.38000000e+02 
940.131  6.96000000e+02 
939.233  6.95000000e+02 
938.335  6.65000000e+02 
937.436  6.81000000e+02 
936.538  7.02000000e+02 
935.640  6.58000000e+02 
934.742  7.20000000e+02 
933.844  7.18000000e+02 
932.945  6.70000000e+02 
932.047  6.76000000e+02 
931.149  7.34000000e+02 
930.251  6.80000000e+02 
929.352  6.52000000e+02 
928.454  7.38000000e+02 
927.556  6.78000000e+02 
926.658  7.32000000e+02 
925.759  6.96000000e+02 
924.861  6.63000000e+02 
923.963  7.07000000e+02 
923.065  7.29000000e+02 
922.167  6.97000000e+02 
921.268  7.30000000e+02 
920.370  6.86000000e+02 
919.472  6.51000000e+02 
918.574  6.63000000e+02 
917.675  6.49000000e+02 
916.777  6.37000000e+02 
915.879  6.44000000e+02 
914.981  6.32000000e+02 
914.083  6.65000000e+02 
913.184  6.68000000e+02 
912.286  7.01000000e+02 
911.388  6.62000000e+02 
910.490  6.58000000e+02 
909.591  6.46000000e+02 
908.693  6.43000000e+02 
907.795  6.51000000e+02 
906.897  6.34000000e+02 
905.998  6.78000000e+02 
905.100  6.32000000e+02 
904.202  6.64000000e+02 
903.304  6.48000000e+02 
902.406  6.69000000e+02 
901.507  6.60000000e+02 
900.609  7.12000000e+02 
899.711  6.39000000e+02 
898.813  5.95000000e+02 
897.914  6.59000000e+02 
897.016  6.31000000e+02 
896.118  6.39000000e+02 
895.220  6.94000000e+02 
894.322  6.36000000e+02 
893.423  6.42000000e+02 
892.525  6.59000000e+02 
891.627  6.28000000e+02 
890.729  6.65000000e+02 
889.830  6.49000000e+02 
888.932  6.81000000e+02 
888.034  6.66000000e+02 
887.136  6.51000000e+02 
886.237  6.28000000e+02 
885.339  6.43000000e+02 
884.441  6.25000000e+02 
883.543  6.39000000e+02 
882.645  6.71000000e+02 
881.746  5.89000000e+02 
880.848  6.00000000e+02 
879.950  6.28000000e+02 
879.052  5.81000000e+02 
878.153  1.27300000e+03 
877.255  6.22000000e+02 
876.357  5.82000000e+02 
875.459  6.08000000e+02 
874.561  6.84000000e+02 
873.662  5.90000000e+02 
872.764  6.55000000e+02 
871.866  6.33000000e+02 
870.968  5.70000000e+02 
870.069  5.91000000e+02 
869.171  5.80000000e+02 
868.273  6.12000000e+02 
867.375  5.99000000e+02 
866.477  6.64000000e+02 
865.578  5.92000000e+02 
864.680  6.36000000e+02 
863.782  6.05000000e+02 
862.884  6.08000000e+02 
861.985  6.16000000e+02 
861.087  5.38000000e+02 
860.189  5.73000000e+02 
859.291  5.87000000e+02 
858.392  6.11000000e+02 
857.494  6.01000000e+02 
856.596  5.79000000e+02 
855.698  6.12000000e+02 
854.800  5.76000000e+02 
853.901  5.61000000e+02 
853.003  6.02000000e+02 
852.105  6.18000000e+02 
851.207  5.98000000e+02 
850.308  5.80000000e+02 
849.410  5.88000000e+02 
848.512  5.86000000e+02 
847.614  6.41000000e+02 
846.716  5.97000000e+02 
845.817  5.61000000e+02 
844.919  6.22000000e+02 
844.021  5.56000000e+02 
843.123  5.91000000e+02 
842.224  5.93000000e+02 
841.326  5.36000000e+02 
840.428  5.44000000e+02 
839.530  5.51000000e+02 
838.631  5.40000000e+02 
837.733  5.64000000e+02 
836.835  5.35000000e+02 
835.937  5.69000000e+02 
835.039  5.80000000e+02 
834.140  5.67000000e+02 
833.242  5.36000000e+02 
832.344  5.61000000e+02 
831.446  5.08000000e+02 
830.547  5.24000000e+02 
829.649  5.29000000e+02 
828.751  5.35000000e+02 
827.853  5.49000000e+02 
826.955  5.68000000e+02 
826.056  5.28000000e+02 
825.158  5.97000000e+02 
824.260  5.61000000e+02 
823.362  5.90000000e+02 
822.463  5.78000000e+02 
821.565  5.44000000e+02 
820.667  5.46000000e+02 
819.769  5.42000000e+02 
818.870  5.26000000e+02 
817.972  5.30000000e+02 
817.074  5.18000000e+02 
816.176  5.77000000e+02 
815.278  5.32000000e+02 
814.379  5.46000000e+02 
813.481  5.69000000e+02 
812.583  5.38000000e+02 
811.685  5.75000000e+02 
810.786  5.60000000e+02 
809.888  5.34000000e+02 
808.990  5.57000000e+02 
808.092  5.36000000e+02 
807.194  5.18000000e+02 
806.295  5.74000000e+02 
805.397  5.21000000e+02 
804.499  4.61000000e+02 
803.601  5.02000000e+02 
802.702  5.57000000e+02 
801.804  4.93000000e+02 
800.906  4.97000000e+02 
800.008  4.85000000e+02 
799.110  5.20000000e+02 
798.211  5.07000000e+02 
797.313  5.53000000e+02 
796.415  4.93000000e+02 
795.517  5.12000000e+02 
794.618  5.09000000e+02 
793.720  4.92000000e+02 
792.822  5.03000000e+02 
791.924  5.27000000e+02 
791.025  4.87000000e+02 
790.127  4.83000000e+02 
789.229  5.08000000e+02 
788.331  4.93000000e+02 
787.433  4.80000000e+02 
786.534  5.04000000e+02 
785.636  5.09000000e+02 
784.738  5.30000000e+02 
783.840  4.83000000e+02 
782.941  4.86000000e+02 
782.043  4.69000000e+02 
781.145  4.90000000e+02 
780.247  5.01000000e+02 
779.349  5.14000000e+02 
778.450  5.21000000e+02 
777.552  5.01000000e+02 
776.654  4.95000000e+02 
775.756  4.85000000e+02 
774.857  4.38000000e+02 
773.959  4.74000000e+02 
773.061  5.24000000e+02 
772.163  4.88000000e+02 
771.264  4.72000000e+02 
770.366  4.59000000e+02 
769.468  4.58000000e+02 
768.570  4.63000000e+02 
767.672  4.69000000e+02 
766.773  4.69000000e+02 
765.875  4.71000000e+02 
764.977  4.43000000e+02 
764.079  4.62000000e+02 
763.180  4.67000000e+02 
762.282  5.17000000e+02 
761.384  4.85000000e+02 
760.486  4.28000000e+02 
759.588  3.97000000e+02 
758.689  4.36000000e+02 
757.791  4.56000000e+02 
756.893  4.13000000e+02 
755.995  4.15000000e+02 
755.096  4.02000000e+02 
754.198  4.42000000e+02 
753.300  4.50000000e+02 
752.402  4.43000000e+02 
751.503  4.47000000e+02 
750.605  4.91000000e+02 
749.707  4.76000000e+02 
748.809  4.07000000e+02 
747.911  4.23000000e+02 
747.012  4.50000000e+02 
746.114  4.52000000e+02 
745.216  4.11000000e+02 
744.318  4.39000000e+02 
743.419  4.89000000e+02 
742.521  3.86000000e+02 
741.623  4.51000000e+02 
740.725  4.35000000e+02 
739.827  4.01000000e+02 
738.928  4.09000000e+02 
738.030  4.77000000e+02 
737.132  3.74000000e+02 
736.234  4.06000000e+02 
735.335  4.13000000e+02 
734.437  4.53000000e+02 
733.539  4.45000000e+02 
732.641  4.03000000e+02 
731.742  4.39000000e+02 
730.844  3.94000000e+02 
729.946  3.81000000e+02 
729.048  3.79000000e+02 
728.150  4.37000000e+02 
727.251  3.92000000e+02 
726.353  3.74000000e+02 
725.455  4.14000000e+02 
724.557  3.91000000e+02 
723.658  3.90000000e+02 
722.760  3.86000000e+02 
721.862  4.02000000e+02 
720.964  4.07000000e+02 
720.066  4.11000000e+02 
719.167  4.15000000e+02 
718.269  3.89000000e+02 
717.371  3.95000000e+02 
716.473  4.18000000e+02 
715.574  3.80000000e+02 
714.676  3.73000000e+02 
713.778  4.10000000e+02 
712.880  4.12000000e+02 
711.982  3.76000000e+02 
711.083  3.63000000e+02 
710.185  3.98000000e+02 
709.287  3.69000000e+02 
708.389  3.71000000e+02 
707.490  3.27000000e+02 
706.592  3.64000000e+02 
705.694  4.03000000e+02 
704.796  3.79000000e+02 
703.897  3.42000000e+02 
702.999  3.66000000e+02 
702.101  3.25000000e+02 
701.203  3.25000000e+02 
700.305  3.52000000e+02 
699.406  3.54000000e+02 
698.508  3.50000000e+02 
697.610  3.55000000e+02 
696.712  3.48000000e+02 
695.813  3.76000000e+02 
694.915  3.33000000e+02 
694.017  3.25000000e+02 
693.119  3.41000000e+02 
692.221  3.38000000e+02 
691.322  3.18000000e+02 
690.424  3.35000000e+02 
689.526  3.57000000e+02 
688.628  3.00000000e+02 
687.729  3.28000000e+02 
686.831  3.11000000e+02 
685.933  3.49000000e+02 
685.035  3.14000000e+02 
684.136  3.44000000e+02 
683.238  3.01000000e+02 
682.340  3.07000000e+02 
681.442  3.08000000e+02 
680.544  3.14000000e+02 
679.645  2.87000000e+02 
678.747  3.17000000e+02 
677.849  3.18000000e+02 
676.951  3.19000000e+02 
676.052  3.21000000e+02 
675.154  3.47000000e+02 
674.256  3.07000000e+02 
673.358  2.80000000e+02 
672.460  2.92000000e+02 
671.561  3.08000000e+02 
670.663  3.05000000e+02 
669.765  2.83000000e+02 
668.867  2.81000000e+02 
667.968  2.94000000e+02 
667.070  2.93000000e+02 
666.172  2.89000000e+02 
665.274  2.80000000e+02 
664.375  3.17000000e+02 
663.477  2.92000000e+02 
662.579  3.14000000e+02 
661.681  3.03000000e+02 
660.783  2.88000000e+02 
659.884  2.97000000e+02 
658.986  2.88000000e+02 
658.088  3.20000000e+02 
657.190  3.02000000e+02 
656.291  3.05000000e+02 
655.393  2.94000000e+02 
654.495  2.53000000e+02 
653.597  2.71000000e+02 
652.699  2.74000000e+02 
651.800  2.81000000e+02 
650.902  2.61000000e+02 
650.004  2.58000000e+02 
649.106  2.64000000e+02 
648.207  2.60000000e+02 
647.309  2.79000000e+02 
646.411  2.99000000e+02 
645.513  2.93000000e+02 
644.615  2.84000000e+02 
643.716  2.49000000e+02 
642.818  2.76000000e+02 
641.920  2.31000000e+02 
641.022  2.56000000e+02 
640.123  2.27000000e+02 
639.225  2.93000000e+02 
638.327  2.53000000e+02 
637.429  2.84000000e+02 
636.530  2.65000000e+02 
635.632  2.40000000e+02 
634.734  2.65000000e+02 
633.836  2.77000000e+02 
632.938  2.37000000e+02 
632.039  2.50000000e+02 
631.141  2.44000000e+02 
630.243  2.46000000e+02 
629.345  2.52000000e+02 
628.446  2.49000000e+02 
627.548  2.43000000e+02 
626.650  2.34000000e+02 
625.752  2.37000000e+02 
624.854  2.26000000e+02 
623.955  2.35000000e+02 
623.057  2.48000000e+02 
622.159  2.43000000e+02 
621.261  2.23000000e+02 
620.362  2.27000000e+02 
619.464  2.34000000e+02 
618.566  2.33000000e+02 
617.668  2.26000000e+02 
616.769  2.41000000e+02 
615.871  2.17000000e+02 
614.973  2.53000000e+02 
614.075  2.22000000e+02 
613.177  2.17000000e+02 
612.278  2.26000000e+02 
611.380  2.27000000e+02 
610.482  2.56000000e+02 
609.584  2.21000000e+02 
608.685  2.47000000e+02 
607.787  2.13000000e+02 
606.889  2.17000000e+02 
605.991  2.29000000e+02 
605.093  2.31000000e+02 
604.194  2.42000000e+02 
603.296  2.35000000e+02 
602.398  1.99000000e+02 
601.500  2.19000000e+02 
600.601  2.33000000e+02 
599.703  2.27000000e+02 
598.805  2.17000000e+02 
597.907  2.11000000e+02 
597.008  2.35000000e+02 
596.110  2.40000000e+02 
595.212  2.23000000e+02 
594.314  2.58000000e+02 
593.416  2.24000000e+02 
592.517  2.49000000e+02 
591.619  2.22000000e+02 
590.721  2.18000000e+02 
589.823  2.52000000e+02 
588.924  2.32000000e+02 
588.026  2.43000000e+02 
587.128  1.87000000e+02 
586.230  2.38000000e+02 
585.332  2.26000000e+02 
584.433  2.37000000e+02 
583.535  2.28000000e+02 
582.637  2.30000000e+02 
581.739  1.91000000e+02 
580.840  2.65000000e+02 
579.942  2.16000000e+02 
579.044  2.21000000e+02 
578.146  2.19000000e+02 
577.247  2.43000000e+02 
576.349  2.49000000e+02 
575.451  2.02000000e+02 
574.553  2.14000000e+02 
573.655  2.33000000e+02 
572.756  2.14000000e+02 
571.858  2.27000000e+02 
570.960  2.29000000e+02 
570.062  2.31000000e+02 
569.163  2.39000000e+02 
568.265  2.18000000e+02 
567.367  2.19000000e+02 
566.469  2.16000000e+02 
565.571  2.43000000e+02 
564.672  1.90000000e+02 
563.774  2.36000000e+02 
562.876  2.15000000e+02 
561.978  2.06000000e+02 
561.079  1.98000000e+02 
560.181  1.98000000e+02 
559.283  2.06000000e+02 
558.385  1.53000000e+02 
557.487  2.02000000e+02 
556.588  2.28000000e+02 
555.690  2.13000000e+02 
554.792  1.84000000e+02 
553.894  2.13000000e+02 
552.995  2.14000000e+02 
552.097  2.29000000e+02 
551.199  1.83000000e+02 
550.301  2.22000000e+02 
549.402  2.06000000e+02 
548.504  2.06000000e+02 
547.606  2.44000000e+02 
546.708  1.84000000e+02 
545.810  1.92000000e+02 
544.911  2.01000000e+02 
544.013  1.90000000e+02 
543.115  1.98000000e+02 
542.217  1.88000000e+02 
541.318  1.93000000e+02 
540.420  1.93000000e+02 
539.522  1.82000000e+02 
538.624  1.60000000e+02 
537.726  1.81000000e+02 
536.827  1.65000000e+02 
535.929  1.61000000e+02 
535.031  1.71000000e+02 
534.133  1.20000000e+02 
533.234  1.46000000e+02 
532.336  1.39000000e+02 
531.438  1.50000000e+02 
530.540  2.19000000e+02 
529.641  3.25000000e+02 
528.743  5.06000000e+02 
527.845  3.84000000e+02 
526.947  1.83000000e+02 
526.049  1.41000000e+02 
525.150  1.40000000e+02 
524.252  1.40000000e+02 
523.354  1.26000000e+02 
522.456  1.20000000e+02 
521.557  1.29000000e+02 
520.659  1.15000000e+02 
519.761  1.25000000e+02 
518.863  1.47000000e+02 
517.965  1.38000000e+02 
517.066  1.37000000e+02 
516.168  1.30000000e+02 
515.270  1.31000000e+02 
514.372  1.58000000e+02 
513.473  1.16000000e+02 
512.575  1.41000000e+02 
511.677  1.49000000e+02 
510.779  1.25000000e+02 
509.880  1.34000000e+02 
508.982  1.07000000e+02 
508.084  1.37000000e+02 
507.186  1.20000000e+02 
506.288  1.05000000e+02 
505.389  1.38000000e+02 
504.491  1.38000000e+02 
503.593  1.38000000e+02 
502.695  1.34000000e+02 
501.796  1.37000000e+02 
500.898  1.31000000e+02 
500.000  1.25000000e+02 
499.102  1.40000000e+02 
498.204  1.28000000e+02 
497.305  1.29000000e+02 
496.407  1.35000000e+02 
495.509  1.42000000e+02 
494.611  1.29000000e+02 
493.712  1.30000000e+02 
492.814  1.30000000e+02 
491.916  1.26000000e+02 
491.018  1.37000000e+02 
490.120  1.40000000e+02 
489.221  1.38000000e+02 
488.323  1.25000000e+02 
487.425  1.44000000e+02 
486.527  1.24000000e+02 
485.628  1.53000000e+02 
484.730  1.43000000e+02 
483.832  1.33000000e+02 
482.934  1.21000000e+02 
482.035  1.60000000e+02 
481.137  1.31000000e+02 
480.239  1.43000000e+02 
479.341  1.51000000e+02 
478.443  1.28000000e+02 
477.544  1.28000000e+02 
476.646  1.51000000e+02 
475.748  1.35000000e+02 
474.850  1.52000000e+02 
473.951  1.17000000e+02 
473.053  1.34000000e+02 
472.155  1.28000000e+02 
471.257  1.63000000e+02 
470.359  1.40000000e+02 
469.460  1.45000000e+02 
468.562  1.22000000e+02 
467.664  1.40000000e+02 
466.766  1.39000000e+02 
465.867  1.42000000e+02 
464.969  1.44000000e+02 
464.071  1.33000000e+02 
463.173  1.20000000e+02 
462.274  1.28000000e+02 
461.376  1.43000000e+02 
460.478  1.21000000e+02 
459.580  1.49000000e+02 
458.682  1.38000000e+02 
457.783  1.46000000e+02 
456.885  1.30000000e+02 
455.987  1.22000000e+02 
455.089  1.60000000e+02 
454.190  1.36000000e+02 
453.292  1.39000000e+02 
452.394  1.22000000e+02 
451.496  1.47000000e+02 
450.598  1.29000000e+02 
449.699  1.45000000e+02 
448.801  1.19000000e+02 
447.903  1.22000000e+02 
447.005  1.38000000e+02 
446.106  1.39000000e+02 
445.208  1.39000000e+02 
444.310  1.52000000e+02 
443.412  1.29000000e+02 
442.513  1.42000000e+02 
441.615  1.48000000e+02 
440.717  1.33000000e+02 
439.819  1.44000000e+02 
438.921  1.36000000e+02 
438.022  1.35000000e+02 
437.124  1.21000000e+02 
436.226  1.30000000e+02 
435.328  1.40000000e+02 
434.429  1.57000000e+02 
433.531  1.43000000e+02 
432.633  1.55000000e+02 
431.735  1.52000000e+02 
430.837  1.53000000e+02 
429.938  1.47000000e+02 
429.040  1.57000000e+02 
428.142  1.49000000e+02 
427.244  1.35000000e+02 
426.345  1.55000000e+02 
425.447  1.41000000e+02 
424.549  1.34000000e+02 
423.651  1.33000000e+02 
422.753  1.36000000e+02 
421.854  1.60000000e+02 
420.956  1.35000000e+02 
420.058  1.15000000e+02 
419.160  1.33000000e+02 
418.261  1.62000000e+02 
417.363  1.48000000e+02 
416.465  1.25000000e+02 
415.567  1.50000000e+02 
414.668  1.43000000e+02 
413.770  1.51000000e+02 
412.872  1.50000000e+02 
411.974  1.63000000e+02 
411.076  1.40000000e+02 
410.177  1.63000000e+02 
409.279  1.41000000e+02 
408.381  1.29000000e+02 
407.483  1.43000000e+02 
406.584  1.23000000e+02 
405.686  1.57000000e+02 
404.788  1.57000000e+02 
403.890  1.60000000e+02 
402.992  1.38000000e+02 
402.093  1.32000000e+02 
401.195  1.71000000e+02 
400.297  1.59000000e+02 
399.399  1.43000000e+02 
398.500  1.49000000e+02 
397.602  1.46000000e+02 
396.704  1.46000000e+02 
395.806  1.50000000e+02 
394.907  1.60000000e+02 
394.009  1.71000000e+02 
393.111  1.56000000e+02 
392.213  1.57000000e+02 
391.315  1.46000000e+02 
390.416  1.56000000e+02 
389.518  1.60000000e+02 
388.620  1.44000000e+02 
387.722  1.38000000e+02 
386.823  1.45000000e+02 
385.925  1.29000000e+02 
385.027  1.66000000e+02 
384.129  1.64000000e+02 
383.231  1.48000000e+02 
382.332  1.49000000e+02 
381.434  1.41000000e+02 
380.536  1.40000000e+02 
379.638  1.50000000e+02 
378.739  1.59000000e+02 
377.841  1.55000000e+02 
376.943  1.45000000e+02 
376.045  1.62000000e+02 
375.146  1.53000000e+02 
374.248  1.73000000e+02 
373.350  1.56000000e+02 
372.452  1.88000000e+02 
371.554  1.69000000e+02 
370.655  1.67000000e+02 
369.757  1.37000000e+02 
368.859  1.61000000e+02 
367.961  1.53000000e+02 
367.062  1.76000000e+02 
366.164  1.66000000e+02 
365.266  1.84000000e+02 
364.368  1.54000000e+02 
363.470  1.53000000e+02 
362.571  1.61000000e+02 
361.673  1.45000000e+02 
360.775  1.55000000e+02 
359.877  1.40000000e+02 
358.978  1.69000000e+02 
358.080  1.65000000e+02 
357.182  1.61000000e+02 
356.284  1.49000000e+02 
355.385  1.52000000e+02 
354.487  1.52000000e+02 
353.589  1.66000000e+02 
352.691  1.68000000e+02 
351.793  1.90000000e+02 
350.894  1.69000000e+02 
349.996  1.72000000e+02 
349.098  1.66000000e+02 
348.200  1.56000000e+02 
347.301  1.58000000e+02 
346.403  1.54000000e+02 
345.505  1.91000000e+02 
344.607  1.82000000e+02 
343.709  1.44000000e+02 
342.810  1.67000000e+02 
341.912  1.64000000e+02 
341.014  1.86000000e+02 
340.116  1.86000000e+02 
339.217  1.77000000e+02 
338.319  1.84000000e+02 
337.421  1.72000000e+02 
336.523  1.79000000e+02 
335.625  1.75000000e+02 
334.726  1.74000000e+02 
333.828  1.66000000e+02 
332.930  1.83000000e+02 
332.032  1.78000000e+02 
331.133  1.69000000e+02 
330.235  1.64000000e+02 
329.337  1.76000000e+02 
328.439  1.85000000e+02 
327.540  1.67000000e+02 
326.642  1.53000000e+02 
325.744  1.64000000e+02 
324.846  1.83000000e+02 
323.948  1.83000000e+02 
323.049  1.58000000e+02 
322.151  1.91000000e+02 
321.253  1.80000000e+02 
320.355  1.79000000e+02 
319.456  1.73000000e+02 
318.558  1.58000000e+02 
317.660  1.75000000e+02 
316.762  1.81000000e+02 
315.864  1.96000000e+02 
314.965  1.78000000e+02 
314.067  1.94000000e+02 
313.169  1.91000000e+02 
312.271  1.81000000e+02 
311.372  2.16000000e+02 
310.474  1.78000000e+02 
309.576  1.74000000e+02 
308.678  1.92000000e+02 
307.779  1.87000000e+02 
306.881  1.85000000e+02 
305.983  1.83000000e+02 
305.085  1.81000000e+02 
304.187  1.68000000e+02 
303.288  1.70000000e+02 
302.390  1.59000000e+02 
301.492  1.54000000e+02 
300.594  1.55000000e+02 
299.695  1.68000000e+02 
298.797  1.64000000e+02 
297.899  1.56000000e+02 
297.001  1.55000000e+02 
296.103  1.66000000e+02 
295.204  1.48000000e+02 
294.306  1.34000000e+02 
293.408  1.35000000e+02 
292.510  1.22000000e+02 
291.611  1.45000000e+02 
290.713  1.49000000e+02 
289.815  1.94000000e+02 
288.917  2.26000000e+02 
288.018  4.29000000e+02 
287.120  7.48000000e+02 
286.222  3.35000000e+02 
285.324  1.22000000e+02 
284.426  1.34000000e+02 
283.527  1.33000000e+02 
282.629  1.10000000e+02 
281.731  1.07000000e+02 
280.833  1.08000000e+02 
279.934  1.08000000e+02 
279.036  1.02000000e+02 
278.138  1.08000000e+02 
277.240  1.09000000e+02 
276.342  1.10000000e+02 
275.443  9.60000000e+01 
274.545  1.16000000e+02 
273.647  1.09000000e+02 
272.749  1.27000000e+02 
271.850  9.80000000e+01 
270.952  1.11000000e+02 
270.054  1.07000000e+02 
269.156  9.40000000e+01 
268.258  1.03000000e+02 
267.359  1.09000000e+02 
266.461  1.04000000e+02 
265.563  1.21000000e+02 
264.665  1.13000000e+02 
263.766  1.03000000e+02 
262.868  8.70000000e+01 
261.970  6.90000000e+01 
261.072  9.70000000e+01 
260.173  1.00000000e+02 
259.275  1.20000000e+02 
258.377  1.22000000e+02 
257.479  8.90000000e+01 
256.581  1.08000000e+02 
255.682  1.05000000e+02 
254.784  8.80000000e+01 
253.886  1.15000000e+02 
252.988  1.04000000e+02 
252.089  1.09000000e+02 
251.191  1.13000000e+02 
250.293  9.00000000e+01 
249.395  1.16000000e+02 
248.497  1.18000000e+02 
247.598  1.25000000e+02 
246.700  1.03000000e+02 
245.802  1.29000000e+02 
244.904  1.10000000e+02 
244.005  1.02000000e+02 
243.107  1.06000000e+02 
242.209  9.50000000e+01 
241.311  1.08000000e+02 
240.412  8.70000000e+01 
239.514  1.16000000e+02 
238.616  1.04000000e+02 
237.718  9.30000000e+01 
236.820  1.00000000e+02 
235.921  9.20000000e+01 
235.023  9.70000000e+01 
234.125  1.09000000e+02 
233.227  1.06000000e+02 
232.328  1.00000000e+02 
231.430  1.03000000e+02 
230.532  9.70000000e+01 
229.634  1.22000000e+02 
228.736  1.00000000e+02 
227.837  9.10000000e+01 
226.939  1.05000000e+02 
226.041  1.00000000e+02 
225.143  1.12000000e+02 
224.244  1.00000000e+02 
223.346  1.06000000e+02 
222.448  8.30000000e+01 
221.550  9.50000000e+01 
220.651  1.14000000e+02 
219.753  1.07000000e+02 
218.855  9.20000000e+01 
217.957  1.09000000e+02 
217.059  1.07000000e+02 
216.160  1.16000000e+02 
215.262  9.00000000e+01 
214.364  9.80000000e+01 
213.466  1.12000000e+02 
212.567  1.05000000e+02 
211.669  1.06000000e+02 
210.771  1.13000000e+02 
209.873  8.70000000e+01 
208.975  8.70000000e+01 
208.076  9.30000000e+01 
207.178  1.19000000e+02 
206.280  9.40000000e+01 
205.382  9.70000000e+01 
204.483  1.10000000e+02 
203.585  1.09000000e+02 
202.687  9.50000000e+01 
201.789  1.01000000e+02 
200.890  8.60000000e+01 
199.992  1.17000000e+02 
199.094  1.01000000e+02 
198.196  7.70000000e+01 
197.298  9.60000000e+01 
196.399  8.90000000e+01 
195.501  8.50000000e+01 
194.603  8.90000000e+01 
193.705  8.10000000e+01 
192.806  1.06000000e+02 
191.908  9.50000000e+01 
191.010  8.90000000e+01 
190.112  9.90000000e+01 
189.214  8.20000000e+01 
188.315  9.80000000e+01 
187.417  8.20000000e+01 
186.519  9.40000000e+01 
185.621  1.05000000e+02 
184.722  8.90000000e+01 
183.824  8.20000000e+01 
182.926  8.20000000e+01 
182.028  1.02000000e+02 
181.130  1.05000000e+02 
180.231  1.02000000e+02 
179.333  9.70000000e+01 
178.435  8.70000000e+01 
177.537  8.00000000e+01 
176.638  1.04000000e+02 
175.740  8.00000000e+01 
174.842  7.90000000e+01 
173.944  9.70000000e+01 
173.045  9.10000000e+01 
172.147  9.50000000e+01 
171.249  1.07000000e+02 
170.351  8.40000000e+01 
169.453  8.90000000e+01 
168.554  7.80000000e+01 
167.656  7.80000000e+01 
166.758  9.00000000e+01 
165.860  7.00000000e+01 
164.961  9.20000000e+01 
164.063  8.70000000e+01 
163.165  8.50000000e+01 
162.267  8.20000000e+01 
161.369  9.20000000e+01 
160.470  7.90000000e+01 
159.572  9.10000000e+01 
158.674  8.10000000e+01 
157.776  1.01000000e+02 
156.877  9.60000000e+01 
155.979  9.80000000e+01 
155.081  7.70000000e+01 
154.183  7.50000000e+01 
153.284  7.90000000e+01 
152.386  6.90000000e+01 
151.488  7.20000000e+01 
150.590  8.00000000e+01 
149.692  7.90000000e+01 
148.793  8.00000000e+01 
147.895  7.10000000e+01 
146.997  8.10000000e+01 
146.099  8.60000000e+01 
145.200  7.00000000e+01 
144.302  8.00000000e+01 
143.404  8.50000000e+01 
142.506  6.90000000e+01 
141.608  7.70000000e+01 
140.709  7.80000000e+01 
139.811  8.90000000e+01 
138.913  7.50000000e+01 
138.015  8.60000000e+01 
137.116  7.80000000e+01 
136.218  6.70000000e+01 
135.320  8.40000000e+01 
134.422  7.00000000e+01 
133.523  7.00000000e+01 
132.625  8.20000000e+01 
131.727  6.20000000e+01 
130.829  7.20000000e+01 
129.931  6.10000000e+01 
129.032  7.80000000e+01 
128.134  6.20000000e+01 
127.236  7.70000000e+01 
126.338  7.40000000e+01 
125.439  6.50000000e+01 
124.541  5.80000000e+01 
123.643  7.00000000e+01 
122.745  5.60000000e+01 
121.847  6.60000000e+01 
120.948  6.40000000e+01 
120.050  5.10000000e+01 
119.152  6.70000000e+01 
118.254  6.30000000e+01 
117.355  6.00000000e+01 
116.457  4.20000000e+01 
115.559  6.00000000e+01 
114.661  4.20000000e+01 
113.763  5.40000000e+01 
112.864  5.90000000e+01 
111.966  5.60000000e+01 
111.068  4.50000000e+01 
110.170  5.00000000e+01 
109.271  6.10000000e+01 
108.373  7.70000000e+01 
107.475  6.20000000e+01 
106.577  3.80000000e+01 
105.678  4.00000000e+01 
104.780  4.90000000e+01 
103.882  5.40000000e+01 
102.984  4.80000000e+01 
102.086  4.40000000e+01 
101.187  4.40000000e+01 
100.289  4.40000000e+01 
99.391   5.00000000e+01 
98.493   5.30000000e+01 
97.594   3.70000000e+01 
96.696   4.70000000e+01 
95.798   4.10000000e+01 
94.900   4.00000000e+01 
94.002   4.30000000e+01 
93.103   4.10000000e+01 
92.205   3.70000000e+01 
91.307   3.40000000e+01 
90.409   4.30000000e+01 
89.510   3.90000000e+01 
88.612   4.30000000e+01 
87.714   3.50000000e+01 
86.816   4.60000000e+01 
85.917   3.40000000e+01 
85.019   2.90000000e+01 
84.121   3.00000000e+01 
83.223   3.20000000e+01 
82.325   3.40000000e+01 
81.426   4.20000000e+01 
80.528   3.10000000e+01 
79.630   3.50000000e+01 
78.732   2.70000000e+01 
77.833   3.20000000e+01 
76.935   4.10000000e+01 
76.037   3.40000000e+01 
75.139   5.30000000e+01 
74.241   4.10000000e+01 
73.342   2.20000000e+01 
72.444   2.50000000e+01 
71.546   2.60000000e+01 
70.648   2.00000000e+01 
69.749   1.20000000e+01 
68.851   1.50000000e+01 
67.953   2.10000000e+01 
67.055   1.10000000e+01 
66.156   1.50000000e+01 
65.258   2.10000000e+01 
64.360   2.30000000e+01 
63.462   1.60000000e+01 
62.564   9.00000000e+00 
61.665   2.00000000e+01 
60.767   2.50000000e+01 
59.869   1.10000000e+01 
58.971   1.70000000e+01 
58.072   2.00000000e+01 
57.174   2.10000000e+01 
56.276   1.80000000e+01 
55.378   2.20000000e+01 
54.480   1.20000000e+01 
53.581   1.70000000e+01 
52.683   1.70000000e+01 
51.785   2.20000000e+01 
50.887   1.40000000e+01 
49.988   1.40000000e+01 
49.090   2.00000000e+01 
48.192   2.00000000e+01 
47.294   1.40000000e+01 
46.396   1.60000000e+01 
45.497   1.40000000e+01 
44.599   1.80000000e+01 
43.701   1.00000000e+01 
42.803   1.40000000e+01 
41.904   1.10000000e+01 
41.006   1.70000000e+01 
40.108   1.30000000e+01 
39.210   1.10000000e+01 
38.311   1.80000000e+01 
37.413   2.00000000e+01 
36.515   1.30000000e+01 
35.617   1.50000000e+01 
34.719   1.70000000e+01 
33.820   1.80000000e+01 
32.922   1.20000000e+01 
32.024   1.70000000e+01 
31.126   1.60000000e+01 
30.227   1.50000000e+01 
29.329   6.00000000e+00 
28.431   1.10000000e+01 
27.533   1.20000000e+01 
26.635   9.00000000e+00 
25.736   9.00000000e+00 
24.838   1.10000000e+01 
23.940   3.00000000e+00 
23.042   8.00000000e+00 
22.143   1.60000000e+01 
21.245   1.40000000e+01 
20.347   9.00000000e+00 
19.449   1.00000000e+01 
18.550   1.10000000e+01 
17.652   1.20000000e+01 
16.754   8.00000000e+00 
15.856   1.00000000e+01 
14.958   1.10000000e+01 
14.059   1.10000000e+01 
13.161   1.20000000e+01 
12.263   1.10000000e+01 
11.365   1.20000000e+01 
10.466   7.00000000e+00 
9.568    2.00000000e+00 
8.670    2.00000000e+00 
7.772    0.00000000e+00 
6.874    3.00000000e+00 
5.975    0.00000000e+00 
5.077    3.00000000e+00 
4.179    0.00000000e+00 
3.281    0.00000000e+00 
2.382    2.00000000e+00 
1.484    1.00000000e+00 
0.586    1.00000000e+00 
