[ Experiment Parameters ]
Experiment Description= <none> 
Number_of_Regions_in_Experiment= 1 

Original_File_name= c:\alexesca\data\testo.xps 
Instrument= ESCA-West
Date= 07-29-1997
Time=  23:00:28

[ Region 1 Parameters ]
Region_Description = O for XPD                          
BEcenter(eV) = 532.000000
BEwidth(eV) = 10.000000
BEstep(eV) = 0.035938
Dwell_Time(sec) = 0.500000
N_o_scans = 1  
N_o_Channels = 278  
Excitation_Energy = 0.000000  
Scan_mode = 0  (DITHERED)

[ Region 1 Curve ]
BEcenter= 532.000 
BEwidth= -9.943  
Excitation= 1486.600
Time_p_channel= 128.000 
Size= 278
536.972  3.59000000e+03 
536.936  3.65700000e+03 
536.900  3.67800000e+03 
536.864  3.50000000e+03 
536.828  3.58000000e+03 
536.792  3.60400000e+03 
536.756  3.54300000e+03 
536.720  3.62100000e+03 
536.685  3.66000000e+03 
536.649  3.60000000e+03 
536.613  3.55600000e+03 
536.577  3.61800000e+03 
536.541  3.73200000e+03 
536.505  3.62400000e+03 
536.469  3.67300000e+03 
536.433  3.67200000e+03 
536.397  3.65300000e+03 
536.361  3.66700000e+03 
536.326  3.63200000e+03 
536.290  3.82200000e+03 
536.254  3.61300000e+03 
536.218  3.55400000e+03 
536.182  3.59100000e+03 
536.146  3.61000000e+03 
536.110  3.66100000e+03 
536.074  3.60700000e+03 
536.038  3.53600000e+03 
536.002  3.52300000e+03 
535.967  3.67100000e+03 
535.931  3.77500000e+03 
535.895  3.72600000e+03 
535.859  3.61700000e+03 
535.823  3.70000000e+03 
535.787  3.64600000e+03 
535.751  3.68600000e+03 
535.715  3.59600000e+03 
535.679  3.63700000e+03 
535.644  3.62100000e+03 
535.608  3.77300000e+03 
535.572  3.65100000e+03 
535.536  3.67900000e+03 
535.500  3.63700000e+03 
535.464  3.58200000e+03 
535.428  3.61600000e+03 
535.392  3.62300000e+03 
535.356  3.61200000e+03 
535.320  3.55500000e+03 
535.285  3.72100000e+03 
535.249  3.67600000e+03 
535.213  3.65100000e+03 
535.177  3.54400000e+03 
535.141  3.67700000e+03 
535.105  3.61300000e+03 
535.069  3.66400000e+03 
535.033  3.65000000e+03 
534.997  3.69600000e+03 
534.961  3.65700000e+03 
534.926  3.63500000e+03 
534.890  3.58800000e+03 
534.854  3.65500000e+03 
534.818  3.69200000e+03 
534.782  3.72600000e+03 
534.746  3.79400000e+03 
534.710  3.60100000e+03 
534.674  3.52800000e+03 
534.638  3.77300000e+03 
534.603  3.67400000e+03 
534.567  3.57200000e+03 
534.531  3.62000000e+03 
534.495  3.68300000e+03 
534.459  3.52900000e+03 
534.423  3.64900000e+03 
534.387  3.65000000e+03 
534.351  3.63500000e+03 
534.315  3.52800000e+03 
534.279  3.72800000e+03 
534.244  3.55500000e+03 
534.208  3.69100000e+03 
534.172  3.70500000e+03 
534.136  3.70700000e+03 
534.100  3.71400000e+03 
534.064  3.81900000e+03 
534.028  3.73100000e+03 
533.992  3.74300000e+03 
533.956  3.65000000e+03 
533.920  3.70400000e+03 
533.885  3.51200000e+03 
533.849  3.62400000e+03 
533.813  3.64600000e+03 
533.777  3.68100000e+03 
533.741  3.70500000e+03 
533.705  3.65500000e+03 
533.669  3.69700000e+03 
533.633  3.57100000e+03 
533.597  3.64400000e+03 
533.562  3.62000000e+03 
533.526  3.67900000e+03 
533.490  3.60800000e+03 
533.454  3.79200000e+03 
533.418  3.71400000e+03 
533.382  3.57100000e+03 
533.346  3.66800000e+03 
533.310  3.68700000e+03 
533.274  3.68600000e+03 
533.238  3.68500000e+03 
533.203  3.66200000e+03 
533.167  3.77700000e+03 
533.131  3.74700000e+03 
533.095  3.65000000e+03 
533.059  3.63700000e+03 
533.023  3.77900000e+03 
532.987  3.68300000e+03 
532.951  3.73300000e+03 
532.915  3.66900000e+03 
532.879  3.64700000e+03 
532.844  3.61400000e+03 
532.808  3.62300000e+03 
532.772  3.66500000e+03 
532.736  3.67700000e+03 
532.700  3.72400000e+03 
532.664  3.58600000e+03 
532.628  3.56400000e+03 
532.592  3.64000000e+03 
532.556  3.59300000e+03 
532.521  3.64700000e+03 
532.485  3.57300000e+03 
532.449  3.75500000e+03 
532.413  3.58800000e+03 
532.377  3.64900000e+03 
532.341  3.70600000e+03 
532.305  3.75000000e+03 
532.269  3.73800000e+03 
532.233  3.61500000e+03 
532.197  3.68500000e+03 
532.162  3.75900000e+03 
532.126  3.61400000e+03 
532.090  3.67900000e+03 
532.054  3.56900000e+03 
532.018  3.80500000e+03 
531.982  3.63300000e+03 
531.946  3.64600000e+03 
531.910  3.62000000e+03 
531.874  3.63300000e+03 
531.838  3.62000000e+03 
531.803  3.61600000e+03 
531.767  3.58800000e+03 
531.731  3.55700000e+03 
531.695  3.51100000e+03 
531.659  3.64300000e+03 
531.623  3.70000000e+03 
531.587  3.65100000e+03 
531.551  3.68000000e+03 
531.515  3.63200000e+03 
531.479  3.61200000e+03 
531.444  3.67800000e+03 
531.408  3.62100000e+03 
531.372  3.68100000e+03 
531.336  3.65400000e+03 
531.300  3.58300000e+03 
531.264  3.66200000e+03 
531.228  3.60000000e+03 
531.192  3.62500000e+03 
531.156  3.64400000e+03 
531.121  3.63600000e+03 
531.085  3.62200000e+03 
531.049  3.54900000e+03 
531.013  3.70900000e+03 
530.977  3.65900000e+03 
530.941  3.60400000e+03 
530.905  3.68900000e+03 
530.869  3.72500000e+03 
530.833  3.71600000e+03 
530.797  3.71000000e+03 
530.762  3.70500000e+03 
530.726  3.67700000e+03 
530.690  3.76000000e+03 
530.654  3.64600000e+03 
530.618  3.61400000e+03 
530.582  3.71500000e+03 
530.546  3.56400000e+03 
530.510  3.68100000e+03 
530.474  3.79700000e+03 
530.438  3.70000000e+03 
530.403  3.68800000e+03 
530.367  3.77800000e+03 
530.331  3.70700000e+03 
530.295  3.66800000e+03 
530.259  3.58200000e+03 
530.223  3.62000000e+03 
530.187  3.74200000e+03 
530.151  3.62300000e+03 
530.115  3.63200000e+03 
530.080  3.71000000e+03 
530.044  3.61200000e+03 
530.008  3.60200000e+03 
529.972  3.64700000e+03 
529.936  3.56600000e+03 
529.900  3.52400000e+03 
529.864  3.52200000e+03 
529.828  3.61300000e+03 
529.792  3.65800000e+03 
529.756  3.67000000e+03 
529.721  3.69700000e+03 
529.685  3.72700000e+03 
529.649  3.65500000e+03 
529.613  3.52600000e+03 
529.577  3.67700000e+03 
529.541  3.63600000e+03 
529.505  3.62200000e+03 
529.469  3.61100000e+03 
529.433  3.73800000e+03 
529.397  3.72100000e+03 
529.362  3.57500000e+03 
529.326  3.66700000e+03 
529.290  3.67100000e+03 
529.254  3.66400000e+03 
529.218  3.59200000e+03 
529.182  3.69900000e+03 
529.146  3.54000000e+03 
529.110  3.63700000e+03 
529.074  3.64800000e+03 
529.039  3.63700000e+03 
529.003  3.70600000e+03 
528.967  3.61800000e+03 
528.931  3.65900000e+03 
528.895  3.60400000e+03 
528.859  3.65400000e+03 
528.823  3.64800000e+03 
528.787  3.74800000e+03 
528.751  3.56900000e+03 
528.715  3.72000000e+03 
528.680  3.73400000e+03 
528.644  3.67200000e+03 
528.608  3.63800000e+03 
528.572  3.64100000e+03 
528.536  3.67400000e+03 
528.500  3.62700000e+03 
528.464  3.64500000e+03 
528.428  3.70900000e+03 
528.392  3.60000000e+03 
528.356  3.60900000e+03 
528.321  3.74600000e+03 
528.285  3.66200000e+03 
528.249  3.67800000e+03 
528.213  3.70500000e+03 
528.177  3.71400000e+03 
528.141  3.65900000e+03 
528.105  3.77500000e+03 
528.069  3.56500000e+03 
528.033  3.60700000e+03 
527.998  3.66400000e+03 
527.962  3.68500000e+03 
527.926  3.74700000e+03 
527.890  3.63400000e+03 
527.854  3.59200000e+03 
527.818  3.67600000e+03 
527.782  3.65600000e+03 
527.746  3.67400000e+03 
527.710  3.64800000e+03 
527.674  3.67200000e+03 
527.639  3.75400000e+03 
527.603  3.66100000e+03 
527.567  3.61700000e+03 
527.531  3.61800000e+03 
527.495  3.53100000e+03 
527.459  3.63300000e+03 
527.423  3.59600000e+03 
527.387  3.65400000e+03 
527.351  3.62600000e+03 
527.315  3.66300000e+03 
527.280  3.69300000e+03 
527.244  3.62300000e+03 
527.208  3.59500000e+03 
527.172  3.69500000e+03 
527.136  3.60500000e+03 
527.100  3.66200000e+03 
527.064  3.81100000e+03 
527.028  3.66100000e+03 
