EXPERIMENT FILE
Version = 2

[ Experiment Parameters ]
Experiment Description= <none> 
Number_of_Regions_in_Experiment= 1 

Original_File_name= C:\alexesca\data\0827_200W_2.xps 
Instrument= HP ESCA West
Date= 08-27-2012
Time=  14:44:35

[ Layer Parameters ]
Layer_Type= XPS

[ Region 1 Parameters ]
Region_Description = Au Dithered Scan Test              
BEcenter(eV) = 91.000000
BEwidth(eV) = 10.000000
BEstep(eV) = 0.035937
Dwell_Time(sec) = 1.000000
N_o_scans = 1  
N_o_Channels = 278  
Scan_mode = 0  (DITHERED)

[ L= 1 R= 1 ]
BEcenter= 91.000  
BEwidth= -9.955  
Excitation= 1486.600
Time_p_channel= 256.000 
Size= 278
95.977   9.00000000e+00 
95.941   4.00000000e+00 
95.905   1.40000000e+01 
95.870   5.00000000e+00 
95.834   4.00000000e+00 
95.798   8.00000000e+00 
95.762   7.00000000e+00 
95.726   8.00000000e+00 
95.690   4.00000000e+00 
95.654   4.00000000e+00 
95.618   7.00000000e+00 
95.582   1.00000000e+01 
95.546   1.10000000e+01 
95.510   1.40000000e+01 
95.474   1.00000000e+01 
95.438   1.00000000e+01 
95.402   7.00000000e+00 
95.366   1.50000000e+01 
95.330   1.10000000e+01 
95.295   1.40000000e+01 
95.259   1.50000000e+01 
95.223   1.20000000e+01 
95.187   1.50000000e+01 
95.151   1.40000000e+01 
95.115   1.30000000e+01 
95.079   1.00000000e+01 
95.043   1.70000000e+01 
95.007   9.00000000e+00 
94.971   9.00000000e+00 
94.935   1.70000000e+01 
94.899   1.00000000e+01 
94.863   1.30000000e+01 
94.827   1.80000000e+01 
94.791   1.00000000e+01 
94.755   1.10000000e+01 
94.720   9.00000000e+00 
94.684   2.50000000e+01 
94.648   1.50000000e+01 
94.612   9.00000000e+00 
94.576   1.70000000e+01 
94.540   2.00000000e+01 
94.504   2.60000000e+01 
94.468   2.80000000e+01 
94.432   1.50000000e+01 
94.396   1.50000000e+01 
94.360   1.70000000e+01 
94.324   2.30000000e+01 
94.288   1.50000000e+01 
94.252   1.30000000e+01 
94.216   1.70000000e+01 
94.180   2.20000000e+01 
94.145   2.70000000e+01 
94.109   2.80000000e+01 
94.073   1.10000000e+01 
94.037   2.30000000e+01 
94.001   1.60000000e+01 
93.965   2.10000000e+01 
93.929   1.80000000e+01 
93.893   1.80000000e+01 
93.857   7.00000000e+00 
93.821   1.10000000e+01 
93.785   1.20000000e+01 
93.749   7.00000000e+00 
93.713   1.30000000e+01 
93.677   1.50000000e+01 
93.641   6.00000000e+00 
93.605   1.40000000e+01 
93.570   6.00000000e+00 
93.534   1.40000000e+01 
93.498   1.30000000e+01 
93.462   1.20000000e+01 
93.426   9.00000000e+00 
93.390   9.00000000e+00 
93.354   1.30000000e+01 
93.318   7.00000000e+00 
93.282   1.10000000e+01 
93.246   1.40000000e+01 
93.210   4.00000000e+00 
93.174   1.00000000e+01 
93.138   1.30000000e+01 
93.102   6.00000000e+00 
93.066   9.00000000e+00 
93.030   5.00000000e+00 
92.995   7.00000000e+00 
92.959   8.00000000e+00 
92.923   7.00000000e+00 
92.887   8.00000000e+00 
92.851   8.00000000e+00 
92.815   7.00000000e+00 
92.779   5.00000000e+00 
92.743   5.00000000e+00 
92.707   9.00000000e+00 
92.671   5.00000000e+00 
92.635   5.00000000e+00 
92.599   6.00000000e+00 
92.563   9.00000000e+00 
92.527   5.00000000e+00 
92.491   5.00000000e+00 
92.455   6.00000000e+00 
92.420   9.00000000e+00 
92.384   5.00000000e+00 
92.348   9.00000000e+00 
92.312   8.00000000e+00 
92.276   8.00000000e+00 
92.240   5.00000000e+00 
92.204   9.00000000e+00 
92.168   9.00000000e+00 
92.132   1.00000000e+01 
92.096   8.00000000e+00 
92.060   1.30000000e+01 
92.024   1.10000000e+01 
91.988   1.00000000e+01 
91.952   1.20000000e+01 
91.916   1.40000000e+01 
91.880   1.50000000e+01 
91.845   1.20000000e+01 
91.809   1.00000000e+01 
91.773   1.20000000e+01 
91.737   1.00000000e+01 
91.701   1.80000000e+01 
91.665   1.30000000e+01 
91.629   1.30000000e+01 
91.593   9.00000000e+00 
91.557   1.90000000e+01 
91.521   1.40000000e+01 
91.485   1.40000000e+01 
91.449   1.00000000e+01 
91.413   1.50000000e+01 
91.377   1.60000000e+01 
91.341   2.10000000e+01 
91.305   1.50000000e+01 
91.270   2.40000000e+01 
91.234   2.30000000e+01 
91.198   3.20000000e+01 
91.162   1.60000000e+01 
91.126   2.40000000e+01 
91.090   2.10000000e+01 
91.054   2.70000000e+01 
91.018   2.10000000e+01 
90.982   2.10000000e+01 
90.946   1.80000000e+01 
90.910   2.10000000e+01 
90.874   1.60000000e+01 
90.838   3.10000000e+01 
90.802   1.80000000e+01 
90.766   2.30000000e+01 
90.730   1.90000000e+01 
90.695   2.00000000e+01 
90.659   1.80000000e+01 
90.623   2.10000000e+01 
90.587   2.30000000e+01 
90.551   1.70000000e+01 
90.515   2.30000000e+01 
90.479   1.40000000e+01 
90.443   2.20000000e+01 
90.407   2.30000000e+01 
90.371   1.50000000e+01 
90.335   1.40000000e+01 
90.299   1.20000000e+01 
90.263   1.20000000e+01 
90.227   1.30000000e+01 
90.191   1.70000000e+01 
90.155   1.50000000e+01 
90.120   1.00000000e+01 
90.084   1.40000000e+01 
90.048   1.60000000e+01 
90.012   9.00000000e+00 
89.976   9.00000000e+00 
89.940   1.10000000e+01 
89.904   1.10000000e+01 
89.868   1.40000000e+01 
89.832   8.00000000e+00 
89.796   6.00000000e+00 
89.760   7.00000000e+00 
89.724   7.00000000e+00 
89.688   5.00000000e+00 
89.652   3.00000000e+00 
89.616   6.00000000e+00 
89.580   7.00000000e+00 
89.545   1.00000000e+01 
89.509   8.00000000e+00 
89.473   4.00000000e+00 
89.437   4.00000000e+00 
89.401   1.00000000e+00 
89.365   4.00000000e+00 
89.329   4.00000000e+00 
89.293   9.00000000e+00 
89.257   4.00000000e+00 
89.221   5.00000000e+00 
89.185   6.00000000e+00 
89.149   1.00000000e+00 
89.113   1.00000000e+01 
89.077   0.00000000e+00 
89.041   1.00000000e+00 
89.005   4.00000000e+00 
88.970   2.00000000e+00 
88.934   4.00000000e+00 
88.898   4.00000000e+00 
88.862   4.00000000e+00 
88.826   3.00000000e+00 
88.790   4.00000000e+00 
88.754   3.00000000e+00 
88.718   4.00000000e+00 
88.682   2.00000000e+00 
88.646   2.00000000e+00 
88.610   4.00000000e+00 
88.574   5.00000000e+00 
88.538   2.00000000e+00 
88.502   5.00000000e+00 
88.466   4.00000000e+00 
88.430   5.00000000e+00 
88.395   3.00000000e+00 
88.359   2.00000000e+00 
88.323   1.00000000e+00 
88.287   2.00000000e+00 
88.251   6.00000000e+00 
88.215   6.00000000e+00 
88.179   2.00000000e+00 
88.143   3.00000000e+00 
88.107   3.00000000e+00 
88.071   6.00000000e+00 
88.035   2.00000000e+00 
87.999   4.00000000e+00 
87.963   3.00000000e+00 
87.927   5.00000000e+00 
87.891   3.00000000e+00 
87.855   3.00000000e+00 
87.820   3.00000000e+00 
87.784   4.00000000e+00 
87.748   3.00000000e+00 
87.712   3.00000000e+00 
87.676   3.00000000e+00 
87.640   4.00000000e+00 
87.604   1.00000000e+00 
87.568   7.00000000e+00 
87.532   4.00000000e+00 
87.496   3.00000000e+00 
87.460   3.00000000e+00 
87.424   2.00000000e+00 
87.388   3.00000000e+00 
87.352   2.00000000e+00 
87.316   3.00000000e+00 
87.280   1.00000000e+00 
87.245   2.00000000e+00 
87.209   3.00000000e+00 
87.173   2.00000000e+00 
87.137   3.00000000e+00 
87.101   2.00000000e+00 
87.065   5.00000000e+00 
87.029   5.00000000e+00 
86.993   4.00000000e+00 
86.957   3.00000000e+00 
86.921   1.00000000e+00 
86.885   2.00000000e+00 
86.849   6.00000000e+00 
86.813   1.00000000e+00 
86.777   5.00000000e+00 
86.741   2.00000000e+00 
86.705   1.00000000e+00 
86.670   3.00000000e+00 
86.634   1.00000000e+00 
86.598   4.00000000e+00 
86.562   1.00000000e+00 
86.526   3.00000000e+00 
86.490   3.00000000e+00 
86.454   6.00000000e+00 
86.418   1.00000000e+00 
86.382   4.00000000e+00 
86.346   2.00000000e+00 
86.310   2.00000000e+00 
86.274   5.00000000e+00 
86.238   3.00000000e+00 
86.202   5.00000000e+00 
86.166   4.00000000e+00 
86.130   4.00000000e+00 
86.095   3.00000000e+00 
86.059   2.00000000e+00 
86.023   5.00000000e+00 

