EXPERIMENT FILE
Version = 2

[ Experiment Parameters ]
Experiment Description= <none> 
Number_of_Regions_in_Experiment= 1 

Original_File_name= C:\alexesca\data\0824Au_PowSupWU_3.xps 
Instrument= HP ESCA West
Date= 08-24-2012
Time=  15:50:37

[ Layer Parameters ]
Layer_Type= XPS

[ Region 1 Parameters ]
Region_Description = Au Dithered Scan Test              
BEcenter(eV) = 91.000000
BEwidth(eV) = 10.000000
BEstep(eV) = 0.035937
Dwell_Time(sec) = 1.000000
N_o_scans = 1  
N_o_Channels = 278  
Scan_mode = 0  (DITHERED)

[ L= 1 R= 1 ]
BEcenter= 91.000  
BEwidth= -9.955  
Excitation= 1486.600
Time_p_channel= 256.000 
Size= 278
95.977   1.50000000e+01 
95.941   1.20000000e+01 
95.905   1.20000000e+01 
95.870   6.00000000e+00 
95.834   2.20000000e+01 
95.798   5.00000000e+00 
95.762   1.20000000e+01 
95.726   1.70000000e+01 
95.690   8.00000000e+00 
95.654   1.40000000e+01 
95.618   1.20000000e+01 
95.582   1.20000000e+01 
95.546   1.60000000e+01 
95.510   1.60000000e+01 
95.474   1.30000000e+01 
95.438   1.10000000e+01 
95.402   1.50000000e+01 
95.366   1.90000000e+01 
95.330   1.60000000e+01 
95.295   1.90000000e+01 
95.259   1.40000000e+01 
95.223   1.90000000e+01 
95.187   1.90000000e+01 
95.151   1.70000000e+01 
95.115   1.50000000e+01 
95.079   1.20000000e+01 
95.043   2.90000000e+01 
95.007   2.50000000e+01 
94.971   2.50000000e+01 
94.935   1.30000000e+01 
94.899   1.80000000e+01 
94.863   2.70000000e+01 
94.827   2.70000000e+01 
94.791   2.30000000e+01 
94.755   2.90000000e+01 
94.720   2.50000000e+01 
94.684   3.80000000e+01 
94.648   3.10000000e+01 
94.612   3.60000000e+01 
94.576   3.40000000e+01 
94.540   2.70000000e+01 
94.504   3.90000000e+01 
94.468   3.50000000e+01 
94.432   3.60000000e+01 
94.396   3.40000000e+01 
94.360   2.70000000e+01 
94.324   3.20000000e+01 
94.288   4.20000000e+01 
94.252   3.60000000e+01 
94.216   2.80000000e+01 
94.180   3.50000000e+01 
94.145   3.30000000e+01 
94.109   3.40000000e+01 
94.073   3.30000000e+01 
94.037   2.40000000e+01 
94.001   3.50000000e+01 
93.965   2.30000000e+01 
93.929   3.00000000e+01 
93.893   3.60000000e+01 
93.857   2.20000000e+01 
93.821   2.20000000e+01 
93.785   3.60000000e+01 
93.749   2.10000000e+01 
93.713   2.70000000e+01 
93.677   2.10000000e+01 
93.641   3.60000000e+01 
93.605   2.50000000e+01 
93.570   1.80000000e+01 
93.534   1.90000000e+01 
93.498   1.70000000e+01 
93.462   2.20000000e+01 
93.426   1.50000000e+01 
93.390   1.90000000e+01 
93.354   2.10000000e+01 
93.318   1.70000000e+01 
93.282   1.60000000e+01 
93.246   2.20000000e+01 
93.210   1.20000000e+01 
93.174   6.00000000e+00 
93.138   1.80000000e+01 
93.102   9.00000000e+00 
93.066   1.50000000e+01 
93.030   1.60000000e+01 
92.995   9.00000000e+00 
92.959   1.30000000e+01 
92.923   1.60000000e+01 
92.887   1.60000000e+01 
92.851   1.60000000e+01 
92.815   9.00000000e+00 
92.779   1.60000000e+01 
92.743   1.00000000e+01 
92.707   9.00000000e+00 
92.671   6.00000000e+00 
92.635   1.10000000e+01 
92.599   2.00000000e+01 
92.563   1.00000000e+01 
92.527   1.20000000e+01 
92.491   1.10000000e+01 
92.455   1.50000000e+01 
92.420   1.00000000e+01 
92.384   1.10000000e+01 
92.348   1.00000000e+01 
92.312   1.20000000e+01 
92.276   1.30000000e+01 
92.240   7.00000000e+00 
92.204   6.00000000e+00 
92.168   1.00000000e+01 
92.132   1.80000000e+01 
92.096   5.00000000e+00 
92.060   9.00000000e+00 
92.024   1.00000000e+01 
91.988   2.10000000e+01 
91.952   1.30000000e+01 
91.916   1.20000000e+01 
91.880   1.80000000e+01 
91.845   1.30000000e+01 
91.809   1.70000000e+01 
91.773   1.50000000e+01 
91.737   1.90000000e+01 
91.701   1.50000000e+01 
91.665   1.40000000e+01 
91.629   1.60000000e+01 
91.593   2.20000000e+01 
91.557   1.60000000e+01 
91.521   1.20000000e+01 
91.485   2.50000000e+01 
91.449   3.00000000e+01 
91.413   2.50000000e+01 
91.377   1.80000000e+01 
91.341   3.10000000e+01 
91.305   3.00000000e+01 
91.270   3.30000000e+01 
91.234   4.70000000e+01 
91.198   2.70000000e+01 
91.162   3.00000000e+01 
91.126   2.80000000e+01 
91.090   2.40000000e+01 
91.054   3.70000000e+01 
91.018   4.50000000e+01 
90.982   4.40000000e+01 
90.946   5.60000000e+01 
90.910   4.60000000e+01 
90.874   4.30000000e+01 
90.838   3.40000000e+01 
90.802   3.00000000e+01 
90.766   4.00000000e+01 
90.730   4.80000000e+01 
90.695   4.30000000e+01 
90.659   4.30000000e+01 
90.623   4.00000000e+01 
90.587   3.70000000e+01 
90.551   3.10000000e+01 
90.515   3.40000000e+01 
90.479   2.50000000e+01 
90.443   4.30000000e+01 
90.407   3.90000000e+01 
90.371   4.50000000e+01 
90.335   4.00000000e+01 
90.299   3.60000000e+01 
90.263   2.80000000e+01 
90.227   3.50000000e+01 
90.191   3.30000000e+01 
90.155   3.00000000e+01 
90.120   3.30000000e+01 
90.084   1.90000000e+01 
90.048   2.90000000e+01 
90.012   2.20000000e+01 
89.976   3.40000000e+01 
89.940   2.20000000e+01 
89.904   2.70000000e+01 
89.868   2.20000000e+01 
89.832   2.70000000e+01 
89.796   1.60000000e+01 
89.760   1.90000000e+01 
89.724   1.20000000e+01 
89.688   1.60000000e+01 
89.652   1.40000000e+01 
89.616   1.80000000e+01 
89.580   1.70000000e+01 
89.545   1.80000000e+01 
89.509   9.00000000e+00 
89.473   1.00000000e+01 
89.437   1.10000000e+01 
89.401   1.50000000e+01 
89.365   1.00000000e+01 
89.329   1.10000000e+01 
89.293   1.00000000e+01 
89.257   1.40000000e+01 
89.221   7.00000000e+00 
89.185   4.00000000e+00 
89.149   7.00000000e+00 
89.113   1.10000000e+01 
89.077   6.00000000e+00 
89.041   6.00000000e+00 
89.005   8.00000000e+00 
88.970   8.00000000e+00 
88.934   1.00000000e+01 
88.898   7.00000000e+00 
88.862   6.00000000e+00 
88.826   7.00000000e+00 
88.790   5.00000000e+00 
88.754   3.00000000e+00 
88.718   9.00000000e+00 
88.682   7.00000000e+00 
88.646   0.00000000e+00 
88.610   6.00000000e+00 
88.574   4.00000000e+00 
88.538   8.00000000e+00 
88.502   2.00000000e+00 
88.466   6.00000000e+00 
88.430   6.00000000e+00 
88.395   1.40000000e+01 
88.359   2.00000000e+00 
88.323   5.00000000e+00 
88.287   4.00000000e+00 
88.251   3.00000000e+00 
88.215   7.00000000e+00 
88.179   6.00000000e+00 
88.143   6.00000000e+00 
88.107   5.00000000e+00 
88.071   3.00000000e+00 
88.035   5.00000000e+00 
87.999   7.00000000e+00 
87.963   4.00000000e+00 
87.927   4.00000000e+00 
87.891   3.00000000e+00 
87.855   3.00000000e+00 
87.820   4.00000000e+00 
87.784   9.00000000e+00 
87.748   6.00000000e+00 
87.712   8.00000000e+00 
87.676   6.00000000e+00 
87.640   4.00000000e+00 
87.604   5.00000000e+00 
87.568   6.00000000e+00 
87.532   6.00000000e+00 
87.496   5.00000000e+00 
87.460   4.00000000e+00 
87.424   6.00000000e+00 
87.388   2.00000000e+00 
87.352   8.00000000e+00 
87.316   5.00000000e+00 
87.280   8.00000000e+00 
87.245   4.00000000e+00 
87.209   0.00000000e+00 
87.173   3.00000000e+00 
87.137   3.00000000e+00 
87.101   4.00000000e+00 
87.065   4.00000000e+00 
87.029   6.00000000e+00 
86.993   2.00000000e+00 
86.957   4.00000000e+00 
86.921   3.00000000e+00 
86.885   1.00000000e+00 
86.849   1.10000000e+01 
86.813   3.00000000e+00 
86.777   5.00000000e+00 
86.741   4.00000000e+00 
86.705   5.00000000e+00 
86.670   3.00000000e+00 
86.634   3.00000000e+00 
86.598   4.00000000e+00 
86.562   3.00000000e+00 
86.526   2.00000000e+00 
86.490   7.00000000e+00 
86.454   5.00000000e+00 
86.418   5.00000000e+00 
86.382   1.00000000e+01 
86.346   6.00000000e+00 
86.310   6.00000000e+00 
86.274   4.00000000e+00 
86.238   7.00000000e+00 
86.202   6.00000000e+00 
86.166   5.00000000e+00 
86.130   5.00000000e+00 
86.095   2.00000000e+00 
86.059   4.00000000e+00 
86.023   4.00000000e+00 

