EXPERIMENT FILE
Version = 2

[ Experiment Parameters ]
Experiment Description= <none> 
Number_of_Regions_in_Experiment= 1 

Original_File_name= C:\alexesca\data\0824Au_PowSupWU_0.xps 
Instrument= HP ESCA West
Date= 08-24-2012
Time=  13:06:46

[ Layer Parameters ]
Layer_Type= XPS

[ Region 1 Parameters ]
Region_Description = Au Dithered Scan Test              
BEcenter(eV) = 91.000000
BEwidth(eV) = 10.000000
BEstep(eV) = 0.035937
Dwell_Time(sec) = 1.000000
N_o_scans = 1  
N_o_Channels = 278  
Scan_mode = 0  (DITHERED)

[ L= 1 R= 1 ]
BEcenter= 91.000  
BEwidth= -9.955  
Excitation= 1486.600
Time_p_channel= 256.000 
Size= 278
95.977   6.00000000e+00 
95.941   1.50000000e+01 
95.905   8.00000000e+00 
95.870   9.00000000e+00 
95.834   1.20000000e+01 
95.798   1.20000000e+01 
95.762   1.00000000e+01 
95.726   1.20000000e+01 
95.690   1.70000000e+01 
95.654   1.60000000e+01 
95.618   2.10000000e+01 
95.582   1.90000000e+01 
95.546   1.80000000e+01 
95.510   1.90000000e+01 
95.474   1.00000000e+01 
95.438   5.00000000e+00 
95.402   2.30000000e+01 
95.366   1.70000000e+01 
95.330   1.20000000e+01 
95.295   2.10000000e+01 
95.259   1.50000000e+01 
95.223   2.20000000e+01 
95.187   2.20000000e+01 
95.151   1.10000000e+01 
95.115   1.70000000e+01 
95.079   1.70000000e+01 
95.043   2.60000000e+01 
95.007   1.80000000e+01 
94.971   2.20000000e+01 
94.935   2.30000000e+01 
94.899   2.70000000e+01 
94.863   1.90000000e+01 
94.827   2.20000000e+01 
94.791   2.50000000e+01 
94.755   2.40000000e+01 
94.720   2.10000000e+01 
94.684   2.20000000e+01 
94.648   2.50000000e+01 
94.612   3.70000000e+01 
94.576   3.40000000e+01 
94.540   2.90000000e+01 
94.504   3.40000000e+01 
94.468   2.40000000e+01 
94.432   2.60000000e+01 
94.396   3.50000000e+01 
94.360   3.30000000e+01 
94.324   2.80000000e+01 
94.288   3.30000000e+01 
94.252   3.60000000e+01 
94.216   2.40000000e+01 
94.180   2.90000000e+01 
94.145   2.40000000e+01 
94.109   2.60000000e+01 
94.073   2.40000000e+01 
94.037   2.50000000e+01 
94.001   3.60000000e+01 
93.965   3.10000000e+01 
93.929   2.20000000e+01 
93.893   1.70000000e+01 
93.857   1.80000000e+01 
93.821   2.30000000e+01 
93.785   2.50000000e+01 
93.749   1.40000000e+01 
93.713   1.60000000e+01 
93.677   3.00000000e+01 
93.641   1.90000000e+01 
93.605   2.10000000e+01 
93.570   1.90000000e+01 
93.534   1.20000000e+01 
93.498   1.60000000e+01 
93.462   1.10000000e+01 
93.426   1.50000000e+01 
93.390   1.40000000e+01 
93.354   1.00000000e+01 
93.318   1.10000000e+01 
93.282   1.30000000e+01 
93.246   1.50000000e+01 
93.210   1.30000000e+01 
93.174   1.30000000e+01 
93.138   1.60000000e+01 
93.102   1.10000000e+01 
93.066   5.00000000e+00 
93.030   7.00000000e+00 
92.995   1.10000000e+01 
92.959   9.00000000e+00 
92.923   1.20000000e+01 
92.887   8.00000000e+00 
92.851   5.00000000e+00 
92.815   1.00000000e+01 
92.779   7.00000000e+00 
92.743   1.80000000e+01 
92.707   1.20000000e+01 
92.671   8.00000000e+00 
92.635   1.20000000e+01 
92.599   1.10000000e+01 
92.563   1.50000000e+01 
92.527   1.20000000e+01 
92.491   1.30000000e+01 
92.455   8.00000000e+00 
92.420   8.00000000e+00 
92.384   1.50000000e+01 
92.348   1.30000000e+01 
92.312   4.00000000e+00 
92.276   1.50000000e+01 
92.240   1.60000000e+01 
92.204   1.00000000e+01 
92.168   1.10000000e+01 
92.132   1.30000000e+01 
92.096   1.70000000e+01 
92.060   9.00000000e+00 
92.024   1.10000000e+01 
91.988   1.80000000e+01 
91.952   1.40000000e+01 
91.916   1.10000000e+01 
91.880   2.00000000e+01 
91.845   1.80000000e+01 
91.809   2.00000000e+01 
91.773   1.20000000e+01 
91.737   1.40000000e+01 
91.701   2.00000000e+01 
91.665   1.40000000e+01 
91.629   1.30000000e+01 
91.593   1.70000000e+01 
91.557   2.50000000e+01 
91.521   2.10000000e+01 
91.485   2.20000000e+01 
91.449   2.80000000e+01 
91.413   2.80000000e+01 
91.377   2.20000000e+01 
91.341   2.80000000e+01 
91.305   3.00000000e+01 
91.270   2.80000000e+01 
91.234   2.70000000e+01 
91.198   2.50000000e+01 
91.162   3.50000000e+01 
91.126   3.60000000e+01 
91.090   2.20000000e+01 
91.054   3.90000000e+01 
91.018   3.50000000e+01 
90.982   3.60000000e+01 
90.946   3.50000000e+01 
90.910   2.10000000e+01 
90.874   3.20000000e+01 
90.838   3.60000000e+01 
90.802   3.00000000e+01 
90.766   1.90000000e+01 
90.730   3.60000000e+01 
90.695   3.10000000e+01 
90.659   3.50000000e+01 
90.623   4.00000000e+01 
90.587   3.40000000e+01 
90.551   2.00000000e+01 
90.515   2.50000000e+01 
90.479   2.50000000e+01 
90.443   2.80000000e+01 
90.407   2.00000000e+01 
90.371   2.20000000e+01 
90.335   2.10000000e+01 
90.299   2.50000000e+01 
90.263   2.20000000e+01 
90.227   1.80000000e+01 
90.191   2.20000000e+01 
90.155   1.90000000e+01 
90.120   2.10000000e+01 
90.084   1.50000000e+01 
90.048   1.50000000e+01 
90.012   1.00000000e+01 
89.976   1.30000000e+01 
89.940   1.80000000e+01 
89.904   1.40000000e+01 
89.868   1.80000000e+01 
89.832   1.00000000e+01 
89.796   1.30000000e+01 
89.760   1.40000000e+01 
89.724   1.60000000e+01 
89.688   1.40000000e+01 
89.652   8.00000000e+00 
89.616   1.40000000e+01 
89.580   1.50000000e+01 
89.545   1.10000000e+01 
89.509   1.20000000e+01 
89.473   1.10000000e+01 
89.437   1.40000000e+01 
89.401   1.10000000e+01 
89.365   1.00000000e+01 
89.329   1.50000000e+01 
89.293   1.10000000e+01 
89.257   1.60000000e+01 
89.221   7.00000000e+00 
89.185   7.00000000e+00 
89.149   1.00000000e+01 
89.113   1.40000000e+01 
89.077   7.00000000e+00 
89.041   3.00000000e+00 
89.005   1.60000000e+01 
88.970   9.00000000e+00 
88.934   8.00000000e+00 
88.898   9.00000000e+00 
88.862   7.00000000e+00 
88.826   1.30000000e+01 
88.790   9.00000000e+00 
88.754   1.00000000e+01 
88.718   8.00000000e+00 
88.682   6.00000000e+00 
88.646   7.00000000e+00 
88.610   7.00000000e+00 
88.574   5.00000000e+00 
88.538   8.00000000e+00 
88.502   7.00000000e+00 
88.466   8.00000000e+00 
88.430   5.00000000e+00 
88.395   5.00000000e+00 
88.359   4.00000000e+00 
88.323   7.00000000e+00 
88.287   1.00000000e+00 
88.251   6.00000000e+00 
88.215   7.00000000e+00 
88.179   8.00000000e+00 
88.143   2.00000000e+00 
88.107   4.00000000e+00 
88.071   6.00000000e+00 
88.035   9.00000000e+00 
87.999   2.00000000e+00 
87.963   1.00000000e+00 
87.927   6.00000000e+00 
87.891   1.00000000e+00 
87.855   6.00000000e+00 
87.820   7.00000000e+00 
87.784   2.00000000e+00 
87.748   4.00000000e+00 
87.712   3.00000000e+00 
87.676   5.00000000e+00 
87.640   3.00000000e+00 
87.604   9.00000000e+00 
87.568   6.00000000e+00 
87.532   4.00000000e+00 
87.496   8.00000000e+00 
87.460   8.00000000e+00 
87.424   2.00000000e+00 
87.388   6.00000000e+00 
87.352   5.00000000e+00 
87.316   3.00000000e+00 
87.280   4.00000000e+00 
87.245   4.00000000e+00 
87.209   7.00000000e+00 
87.173   6.00000000e+00 
87.137   6.00000000e+00 
87.101   6.00000000e+00 
87.065   4.00000000e+00 
87.029   3.00000000e+00 
86.993   8.00000000e+00 
86.957   5.00000000e+00 
86.921   6.00000000e+00 
86.885   5.00000000e+00 
86.849   5.00000000e+00 
86.813   5.00000000e+00 
86.777   7.00000000e+00 
86.741   8.00000000e+00 
86.705   4.00000000e+00 
86.670   1.00000000e+00 
86.634   3.00000000e+00 
86.598   2.00000000e+00 
86.562   4.00000000e+00 
86.526   5.00000000e+00 
86.490   3.00000000e+00 
86.454   5.00000000e+00 
86.418   6.00000000e+00 
86.382   3.00000000e+00 
86.346   1.00000000e+00 
86.310   1.00000000e+00 
86.274   8.00000000e+00 
86.238   7.00000000e+00 
86.202   3.00000000e+00 
86.166   2.00000000e+00 
86.130   7.00000000e+00 
86.095   1.00000000e+00 
86.059   5.00000000e+00 
86.023   7.00000000e+00 

