EXPERIMENT FILE
Version = 2

[ Experiment Parameters ]
Experiment Description= <none> 
Number_of_Regions_in_Experiment= 1 

Original_File_name= C:\alexesca\data\0827_100W.xps 
Instrument= HP ESCA West
Date= 08-27-2012
Time=  14:15:40

[ Layer Parameters ]
Layer_Type= XPS

[ Region 1 Parameters ]
Region_Description = Au Dithered Scan Test              
BEcenter(eV) = 91.000000
BEwidth(eV) = 10.000000
BEstep(eV) = 0.035937
Dwell_Time(sec) = 1.000000
N_o_scans = 1  
N_o_Channels = 278  
Scan_mode = 0  (DITHERED)

[ L= 1 R= 1 ]
BEcenter= 91.000  
BEwidth= -9.955  
Excitation= 1486.600
Time_p_channel= 256.000 
Size= 278
95.977   1.20000000e+01 
95.941   7.00000000e+00 
95.905   1.00000000e+01 
95.870   1.00000000e+01 
95.834   1.00000000e+01 
95.798   1.60000000e+01 
95.762   1.10000000e+01 
95.726   1.00000000e+01 
95.690   1.30000000e+01 
95.654   1.60000000e+01 
95.618   1.80000000e+01 
95.582   1.70000000e+01 
95.546   1.00000000e+01 
95.510   1.60000000e+01 
95.474   9.00000000e+00 
95.438   3.00000000e+00 
95.402   1.30000000e+01 
95.366   1.80000000e+01 
95.330   1.20000000e+01 
95.295   9.00000000e+00 
95.259   1.10000000e+01 
95.223   1.80000000e+01 
95.187   6.00000000e+00 
95.151   9.00000000e+00 
95.115   1.00000000e+01 
95.079   1.50000000e+01 
95.043   8.00000000e+00 
95.007   1.10000000e+01 
94.971   8.00000000e+00 
94.935   1.30000000e+01 
94.899   7.00000000e+00 
94.863   1.50000000e+01 
94.827   1.10000000e+01 
94.791   1.10000000e+01 
94.755   8.00000000e+00 
94.720   8.00000000e+00 
94.684   1.20000000e+01 
94.648   1.40000000e+01 
94.612   1.30000000e+01 
94.576   1.10000000e+01 
94.540   1.90000000e+01 
94.504   1.20000000e+01 
94.468   1.00000000e+01 
94.432   1.00000000e+01 
94.396   1.10000000e+01 
94.360   5.00000000e+00 
94.324   1.00000000e+01 
94.288   1.10000000e+01 
94.252   1.10000000e+01 
94.216   1.30000000e+01 
94.180   8.00000000e+00 
94.145   9.00000000e+00 
94.109   1.20000000e+01 
94.073   1.60000000e+01 
94.037   1.50000000e+01 
94.001   9.00000000e+00 
93.965   1.50000000e+01 
93.929   1.00000000e+01 
93.893   1.30000000e+01 
93.857   4.00000000e+00 
93.821   1.60000000e+01 
93.785   1.80000000e+01 
93.749   6.00000000e+00 
93.713   9.00000000e+00 
93.677   6.00000000e+00 
93.641   1.80000000e+01 
93.605   1.40000000e+01 
93.570   9.00000000e+00 
93.534   1.70000000e+01 
93.498   1.40000000e+01 
93.462   1.30000000e+01 
93.426   1.40000000e+01 
93.390   1.50000000e+01 
93.354   1.20000000e+01 
93.318   6.00000000e+00 
93.282   1.40000000e+01 
93.246   1.20000000e+01 
93.210   1.50000000e+01 
93.174   1.30000000e+01 
93.138   1.10000000e+01 
93.102   1.40000000e+01 
93.066   1.50000000e+01 
93.030   1.10000000e+01 
92.995   1.00000000e+01 
92.959   1.20000000e+01 
92.923   1.40000000e+01 
92.887   6.00000000e+00 
92.851   1.40000000e+01 
92.815   1.80000000e+01 
92.779   1.00000000e+01 
92.743   8.00000000e+00 
92.707   9.00000000e+00 
92.671   9.00000000e+00 
92.635   9.00000000e+00 
92.599   1.00000000e+01 
92.563   6.00000000e+00 
92.527   8.00000000e+00 
92.491   1.30000000e+01 
92.455   1.20000000e+01 
92.420   1.30000000e+01 
92.384   1.00000000e+01 
92.348   7.00000000e+00 
92.312   1.10000000e+01 
92.276   1.10000000e+01 
92.240   7.00000000e+00 
92.204   1.10000000e+01 
92.168   1.50000000e+01 
92.132   1.30000000e+01 
92.096   9.00000000e+00 
92.060   1.50000000e+01 
92.024   7.00000000e+00 
91.988   1.60000000e+01 
91.952   1.80000000e+01 
91.916   1.40000000e+01 
91.880   1.80000000e+01 
91.845   1.10000000e+01 
91.809   6.00000000e+00 
91.773   1.30000000e+01 
91.737   1.40000000e+01 
91.701   1.40000000e+01 
91.665   4.00000000e+00 
91.629   1.10000000e+01 
91.593   1.50000000e+01 
91.557   1.00000000e+01 
91.521   1.50000000e+01 
91.485   9.00000000e+00 
91.449   1.00000000e+01 
91.413   9.00000000e+00 
91.377   8.00000000e+00 
91.341   2.20000000e+01 
91.305   1.00000000e+01 
91.270   1.50000000e+01 
91.234   8.00000000e+00 
91.198   7.00000000e+00 
91.162   6.00000000e+00 
91.126   1.30000000e+01 
91.090   1.10000000e+01 
91.054   1.70000000e+01 
91.018   8.00000000e+00 
90.982   9.00000000e+00 
90.946   1.60000000e+01 
90.910   1.50000000e+01 
90.874   1.30000000e+01 
90.838   6.00000000e+00 
90.802   9.00000000e+00 
90.766   5.00000000e+00 
90.730   9.00000000e+00 
90.695   1.50000000e+01 
90.659   8.00000000e+00 
90.623   1.30000000e+01 
90.587   6.00000000e+00 
90.551   1.40000000e+01 
90.515   1.30000000e+01 
90.479   8.00000000e+00 
90.443   1.10000000e+01 
90.407   5.00000000e+00 
90.371   1.00000000e+01 
90.335   1.00000000e+01 
90.299   1.30000000e+01 
90.263   9.00000000e+00 
90.227   1.50000000e+01 
90.191   1.20000000e+01 
90.155   1.10000000e+01 
90.120   1.40000000e+01 
90.084   1.60000000e+01 
90.048   1.00000000e+01 
90.012   1.10000000e+01 
89.976   1.20000000e+01 
89.940   1.10000000e+01 
89.904   9.00000000e+00 
89.868   1.20000000e+01 
89.832   1.20000000e+01 
89.796   1.00000000e+01 
89.760   8.00000000e+00 
89.724   1.10000000e+01 
89.688   7.00000000e+00 
89.652   9.00000000e+00 
89.616   1.40000000e+01 
89.580   1.10000000e+01 
89.545   8.00000000e+00 
89.509   1.90000000e+01 
89.473   1.00000000e+01 
89.437   6.00000000e+00 
89.401   6.00000000e+00 
89.365   1.00000000e+01 
89.329   9.00000000e+00 
89.293   1.60000000e+01 
89.257   1.40000000e+01 
89.221   1.20000000e+01 
89.185   1.10000000e+01 
89.149   1.50000000e+01 
89.113   8.00000000e+00 
89.077   1.20000000e+01 
89.041   2.00000000e+01 
89.005   1.10000000e+01 
88.970   1.50000000e+01 
88.934   1.30000000e+01 
88.898   9.00000000e+00 
88.862   1.40000000e+01 
88.826   1.60000000e+01 
88.790   1.80000000e+01 
88.754   1.30000000e+01 
88.718   1.00000000e+01 
88.682   1.30000000e+01 
88.646   1.30000000e+01 
88.610   2.10000000e+01 
88.574   1.40000000e+01 
88.538   1.10000000e+01 
88.502   1.40000000e+01 
88.466   1.00000000e+01 
88.430   1.40000000e+01 
88.395   8.00000000e+00 
88.359   1.00000000e+01 
88.323   7.00000000e+00 
88.287   1.20000000e+01 
88.251   1.30000000e+01 
88.215   9.00000000e+00 
88.179   8.00000000e+00 
88.143   1.40000000e+01 
88.107   1.10000000e+01 
88.071   1.00000000e+01 
88.035   1.70000000e+01 
87.999   1.40000000e+01 
87.963   1.00000000e+01 
87.927   1.40000000e+01 
87.891   1.20000000e+01 
87.855   9.00000000e+00 
87.820   8.00000000e+00 
87.784   1.40000000e+01 
87.748   6.00000000e+00 
87.712   1.00000000e+01 
87.676   1.00000000e+01 
87.640   1.00000000e+01 
87.604   1.10000000e+01 
87.568   1.70000000e+01 
87.532   1.50000000e+01 
87.496   1.20000000e+01 
87.460   1.30000000e+01 
87.424   2.40000000e+01 
87.388   1.00000000e+01 
87.352   1.50000000e+01 
87.316   1.00000000e+01 
87.280   1.00000000e+01 
87.245   8.00000000e+00 
87.209   1.10000000e+01 
87.173   1.40000000e+01 
87.137   1.00000000e+01 
87.101   1.70000000e+01 
87.065   1.50000000e+01 
87.029   1.80000000e+01 
86.993   1.30000000e+01 
86.957   1.20000000e+01 
86.921   8.00000000e+00 
86.885   1.00000000e+01 
86.849   1.80000000e+01 
86.813   9.00000000e+00 
86.777   1.10000000e+01 
86.741   8.00000000e+00 
86.705   1.00000000e+01 
86.670   1.40000000e+01 
86.634   8.00000000e+00 
86.598   1.00000000e+01 
86.562   1.80000000e+01 
86.526   1.00000000e+01 
86.490   9.00000000e+00 
86.454   1.20000000e+01 
86.418   1.40000000e+01 
86.382   1.30000000e+01 
86.346   1.10000000e+01 
86.310   9.00000000e+00 
86.274   1.40000000e+01 
86.238   9.00000000e+00 
86.202   1.00000000e+01 
86.166   1.20000000e+01 
86.130   1.10000000e+01 
86.095   2.00000000e+01 
86.059   1.20000000e+01 
86.023   1.40000000e+01 

