EXPERIMENT FILE
Version = 2

[ Experiment Parameters ]
Experiment Description= <none> 
Number_of_Regions_in_Experiment= 1 

Original_File_name= c:\alexesca\data\detector\sur_s_2.xps 
Instrument= HP ESCA West
Date= 02-19-2006
Time=  20:22:59

[ Layer Parameters ]
Layer_Type= XPS

[ Region 1 Parameters ]
Region_Description = Nsurvey                            
BEcenter(eV) = 640.000000
BEwidth(eV) = 1300.000000
BEstep(eV) = 0.539063
Dwell_Time(sec) = 0.250000
N_o_scans = 3  
N_o_Channels = 2402  
Scan_mode = 0  (DITHERED)

[ L= 1 R= 1 ]
BEcenter= 640.000 
BEwidth= -1299.680
Excitation= 1486.600
Time_p_channel= 12.800  
Size= 2412
1289.840 7.13000000e+02 
1289.301 7.10000000e+02 
1288.762 6.90000000e+02 
1288.223 6.96000000e+02 
1287.684 6.63000000e+02 
1287.145 7.15000000e+02 
1286.605 7.17000000e+02 
1286.066 7.02000000e+02 
1285.527 7.14000000e+02 
1284.988 6.88000000e+02 
1284.449 6.98000000e+02 
1283.910 7.03000000e+02 
1283.371 6.69000000e+02 
1282.832 7.29000000e+02 
1282.293 6.96000000e+02 
1281.754 7.20000000e+02 
1281.215 6.83000000e+02 
1280.676 7.94000000e+02 
1280.137 7.07000000e+02 
1279.598 7.33000000e+02 
1279.059 7.27000000e+02 
1278.520 7.30000000e+02 
1277.980 6.69000000e+02 
1277.441 6.74000000e+02 
1276.902 7.13000000e+02 
1276.363 6.96000000e+02 
1275.824 7.40000000e+02 
1275.285 7.26000000e+02 
1274.746 7.11000000e+02 
1274.207 7.30000000e+02 
1273.668 6.73000000e+02 
1273.129 6.62000000e+02 
1272.590 7.07000000e+02 
1272.051 7.36000000e+02 
1271.512 7.16000000e+02 
1270.973 6.95000000e+02 
1270.434 7.48000000e+02 
1269.895 7.01000000e+02 
1269.355 7.54000000e+02 
1268.816 6.77000000e+02 
1268.277 7.00000000e+02 
1267.738 7.51000000e+02 
1267.199 7.31000000e+02 
1266.660 7.38000000e+02 
1266.121 7.35000000e+02 
1265.582 7.91000000e+02 
1265.043 7.42000000e+02 
1264.504 7.69000000e+02 
1263.965 7.28000000e+02 
1263.426 7.69000000e+02 
1262.887 6.92000000e+02 
1262.348 7.01000000e+02 
1261.809 7.62000000e+02 
1261.270 7.33000000e+02 
1260.730 7.20000000e+02 
1260.191 7.62000000e+02 
1259.652 6.89000000e+02 
1259.113 7.41000000e+02 
1258.574 7.43000000e+02 
1258.035 7.11000000e+02 
1257.496 7.83000000e+02 
1256.957 7.38000000e+02 
1256.418 7.87000000e+02 
1255.879 7.66000000e+02 
1255.340 7.22000000e+02 
1254.801 8.12000000e+02 
1254.262 7.69000000e+02 
1253.723 8.05000000e+02 
1253.184 7.42000000e+02 
1252.645 7.67000000e+02 
1252.105 7.63000000e+02 
1251.566 7.30000000e+02 
1251.027 7.76000000e+02 
1250.488 7.94000000e+02 
1249.949 7.32000000e+02 
1249.410 7.91000000e+02 
1248.871 7.24000000e+02 
1248.332 7.20000000e+02 
1247.793 7.65000000e+02 
1247.254 7.97000000e+02 
1246.715 7.45000000e+02 
1246.176 7.43000000e+02 
1245.637 7.78000000e+02 
1245.098 7.50000000e+02 
1244.559 7.47000000e+02 
1244.020 8.03000000e+02 
1243.480 7.82000000e+02 
1242.941 7.87000000e+02 
1242.402 8.09000000e+02 
1241.863 7.86000000e+02 
1241.324 7.89000000e+02 
1240.785 7.52000000e+02 
1240.246 7.44000000e+02 
1239.707 7.77000000e+02 
1239.168 8.11000000e+02 
1238.629 7.29000000e+02 
1238.090 7.47000000e+02 
1237.551 8.32000000e+02 
1237.012 7.92000000e+02 
1236.473 8.52000000e+02 
1235.934 8.64000000e+02 
1235.395 7.37000000e+02 
1234.855 7.86000000e+02 
1234.316 7.82000000e+02 
1233.777 8.10000000e+02 
1233.238 7.47000000e+02 
1232.699 7.64000000e+02 
1232.160 8.53000000e+02 
1231.621 7.61000000e+02 
1231.082 8.60000000e+02 
1230.543 7.93000000e+02 
1230.004 8.01000000e+02 
1229.465 8.04000000e+02 
1228.926 7.63000000e+02 
1228.387 8.07000000e+02 
1227.848 7.87000000e+02 
1227.309 7.79000000e+02 
1226.770 8.15000000e+02 
1226.230 7.80000000e+02 
1225.691 8.09000000e+02 
1225.152 8.01000000e+02 
1224.613 8.04000000e+02 
1224.074 7.84000000e+02 
1223.535 7.92000000e+02 
1222.996 7.71000000e+02 
1222.457 7.69000000e+02 
1221.918 7.28000000e+02 
1221.379 7.65000000e+02 
1220.840 7.44000000e+02 
1220.301 7.61000000e+02 
1219.762 7.88000000e+02 
1219.223 7.45000000e+02 
1218.684 7.24000000e+02 
1218.145 7.29000000e+02 
1217.605 7.28000000e+02 
1217.066 7.21000000e+02 
1216.527 7.46000000e+02 
1215.988 7.36000000e+02 
1215.449 7.74000000e+02 
1214.910 6.65000000e+02 
1214.371 7.50000000e+02 
1213.832 7.06000000e+02 
1213.293 7.03000000e+02 
1212.754 7.31000000e+02 
1212.215 7.52000000e+02 
1211.676 7.42000000e+02 
1211.137 7.25000000e+02 
1210.598 6.72000000e+02 
1210.059 7.50000000e+02 
1209.520 6.95000000e+02 
1208.980 6.91000000e+02 
1208.441 7.24000000e+02 
1207.902 6.75000000e+02 
1207.363 7.33000000e+02 
1206.824 7.13000000e+02 
1206.285 6.61000000e+02 
1205.746 7.13000000e+02 
1205.207 7.06000000e+02 
1204.668 7.31000000e+02 
1204.129 7.07000000e+02 
1203.590 7.39000000e+02 
1203.051 6.82000000e+02 
1202.512 6.90000000e+02 
1201.973 7.51000000e+02 
1201.434 7.42000000e+02 
1200.895 7.46000000e+02 
1200.355 6.67000000e+02 
1199.816 7.38000000e+02 
1199.277 7.04000000e+02 
1198.738 7.61000000e+02 
1198.199 7.34000000e+02 
1197.660 6.69000000e+02 
1197.121 6.94000000e+02 
1196.582 7.21000000e+02 
1196.043 6.99000000e+02 
1195.504 7.41000000e+02 
1194.965 7.27000000e+02 
1194.426 7.21000000e+02 
1193.887 7.11000000e+02 
1193.348 7.21000000e+02 
1192.809 7.28000000e+02 
1192.270 7.62000000e+02 
1191.730 6.98000000e+02 
1191.191 7.43000000e+02 
1190.652 6.96000000e+02 
1190.113 7.22000000e+02 
1189.574 6.79000000e+02 
1189.035 6.42000000e+02 
1188.496 7.01000000e+02 
1187.957 7.32000000e+02 
1187.418 7.15000000e+02 
1186.879 7.14000000e+02 
1186.340 6.87000000e+02 
1185.801 7.24000000e+02 
1185.262 6.95000000e+02 
1184.723 6.63000000e+02 
1184.184 6.85000000e+02 
1183.645 7.20000000e+02 
1183.105 7.47000000e+02 
1182.566 7.18000000e+02 
1182.027 7.04000000e+02 
1181.488 7.30000000e+02 
1180.949 7.28000000e+02 
1180.410 6.99000000e+02 
1179.871 7.32000000e+02 
1179.332 7.39000000e+02 
1178.793 7.17000000e+02 
1178.254 7.10000000e+02 
1177.715 6.54000000e+02 
1177.176 6.82000000e+02 
1176.637 6.70000000e+02 
1176.098 7.24000000e+02 
1175.559 6.97000000e+02 
1175.020 7.19000000e+02 
1174.480 6.93000000e+02 
1173.941 6.95000000e+02 
1173.402 7.08000000e+02 
1172.863 7.00000000e+02 
1172.324 7.20000000e+02 
1171.785 6.57000000e+02 
1171.246 7.24000000e+02 
1170.707 6.60000000e+02 
1170.168 7.00000000e+02 
1169.629 7.00000000e+02 
1169.090 7.04000000e+02 
1168.551 6.51000000e+02 
1168.012 6.68000000e+02 
1167.473 6.78000000e+02 
1166.934 6.54000000e+02 
1166.395 7.43000000e+02 
1165.855 6.89000000e+02 
1165.316 7.09000000e+02 
1164.777 6.73000000e+02 
1164.238 6.75000000e+02 
1163.699 6.77000000e+02 
1163.160 6.71000000e+02 
1162.621 6.91000000e+02 
1162.082 6.77000000e+02 
1161.543 7.48000000e+02 
1161.004 7.47000000e+02 
1160.465 6.90000000e+02 
1159.926 7.00000000e+02 
1159.387 7.10000000e+02 
1158.848 6.42000000e+02 
1158.309 7.02000000e+02 
1157.770 7.28000000e+02 
1157.230 7.13000000e+02 
1156.691 6.82000000e+02 
1156.152 6.98000000e+02 
1155.613 7.15000000e+02 
1155.074 7.29000000e+02 
1154.535 6.53000000e+02 
1153.996 6.68000000e+02 
1153.457 6.85000000e+02 
1152.918 6.88000000e+02 
1152.379 6.60000000e+02 
1151.840 6.77000000e+02 
1151.301 7.27000000e+02 
1150.762 7.02000000e+02 
1150.223 7.26000000e+02 
1149.684 7.04000000e+02 
1149.145 6.63000000e+02 
1148.605 6.78000000e+02 
1148.066 6.99000000e+02 
1147.527 6.58000000e+02 
1146.988 7.04000000e+02 
1146.449 6.80000000e+02 
1145.910 6.95000000e+02 
1145.371 6.79000000e+02 
1144.832 6.82000000e+02 
1144.293 7.07000000e+02 
1143.754 6.69000000e+02 
1143.215 6.88000000e+02 
1142.676 7.14000000e+02 
1142.137 6.71000000e+02 
1141.598 6.58000000e+02 
1141.059 6.87000000e+02 
1140.520 6.71000000e+02 
1139.980 6.52000000e+02 
1139.441 7.04000000e+02 
1138.902 6.36000000e+02 
1138.363 7.38000000e+02 
1137.824 7.05000000e+02 
1137.285 7.28000000e+02 
1136.746 6.84000000e+02 
1136.207 6.87000000e+02 
1135.668 6.60000000e+02 
1135.129 6.85000000e+02 
1134.590 6.78000000e+02 
1134.051 6.14000000e+02 
1133.512 6.81000000e+02 
1132.973 7.04000000e+02 
1132.434 6.98000000e+02 
1131.895 6.52000000e+02 
1131.355 6.65000000e+02 
1130.816 7.04000000e+02 
1130.277 6.76000000e+02 
1129.738 6.54000000e+02 
1129.199 6.84000000e+02 
1128.660 6.80000000e+02 
1128.121 6.43000000e+02 
1127.582 7.01000000e+02 
1127.043 6.84000000e+02 
1126.504 7.19000000e+02 
1125.965 6.98000000e+02 
1125.426 6.87000000e+02 
1124.887 6.53000000e+02 
1124.348 6.75000000e+02 
1123.809 6.90000000e+02 
1123.270 6.72000000e+02 
1122.730 6.74000000e+02 
1122.191 6.74000000e+02 
1121.652 6.70000000e+02 
1121.113 6.40000000e+02 
1120.574 6.73000000e+02 
1120.035 6.62000000e+02 
1119.496 6.99000000e+02 
1118.957 7.29000000e+02 
1118.418 6.93000000e+02 
1117.879 6.65000000e+02 
1117.340 6.29000000e+02 
1116.801 7.14000000e+02 
1116.262 6.77000000e+02 
1115.723 6.53000000e+02 
1115.184 6.68000000e+02 
1114.645 6.92000000e+02 
1114.105 6.91000000e+02 
1113.566 7.35000000e+02 
1113.027 6.52000000e+02 
1112.488 6.96000000e+02 
1111.949 6.67000000e+02 
1111.410 6.89000000e+02 
1110.871 6.76000000e+02 
1110.332 6.83000000e+02 
1109.793 6.57000000e+02 
1109.254 6.80000000e+02 
1108.715 6.68000000e+02 
1108.176 6.85000000e+02 
1107.637 6.82000000e+02 
1107.098 6.42000000e+02 
1106.559 7.02000000e+02 
1106.020 6.65000000e+02 
1105.480 6.79000000e+02 
1104.941 6.48000000e+02 
1104.402 6.98000000e+02 
1103.863 6.82000000e+02 
1103.324 6.86000000e+02 
1102.785 6.89000000e+02 
1102.246 6.93000000e+02 
1101.707 6.72000000e+02 
1101.168 7.04000000e+02 
1100.629 6.72000000e+02 
1100.090 6.22000000e+02 
1099.551 6.66000000e+02 
1099.012 7.43000000e+02 
1098.473 6.86000000e+02 
1097.934 6.27000000e+02 
1097.395 6.89000000e+02 
1096.855 6.75000000e+02 
1096.316 6.26000000e+02 
1095.777 6.44000000e+02 
1095.238 6.43000000e+02 
1094.699 6.63000000e+02 
1094.160 6.59000000e+02 
1093.621 6.97000000e+02 
1093.082 6.71000000e+02 
1092.543 6.97000000e+02 
1092.004 6.64000000e+02 
1091.465 7.02000000e+02 
1090.926 6.35000000e+02 
1090.387 6.56000000e+02 
1089.848 6.81000000e+02 
1089.309 6.62000000e+02 
1088.770 6.63000000e+02 
1088.230 6.34000000e+02 
1087.691 6.40000000e+02 
1087.152 6.43000000e+02 
1086.613 6.01000000e+02 
1086.074 6.23000000e+02 
1085.535 6.48000000e+02 
1084.996 6.05000000e+02 
1084.457 6.60000000e+02 
1083.918 5.92000000e+02 
1083.379 6.42000000e+02 
1082.840 6.21000000e+02 
1082.301 5.89000000e+02 
1081.762 6.40000000e+02 
1081.223 6.24000000e+02 
1080.684 6.17000000e+02 
1080.145 6.77000000e+02 
1079.605 6.43000000e+02 
1079.066 6.87000000e+02 
1078.527 7.49000000e+02 
1077.988 9.32000000e+02 
1077.449 1.08200000e+03 
1076.910 1.22700000e+03 
1076.371 1.04300000e+03 
1075.832 8.58000000e+02 
1075.293 6.63000000e+02 
1074.754 6.50000000e+02 
1074.215 5.82000000e+02 
1073.676 5.86000000e+02 
1073.137 5.66000000e+02 
1072.598 6.09000000e+02 
1072.059 5.87000000e+02 
1071.520 5.72000000e+02 
1070.980 6.11000000e+02 
1070.441 6.01000000e+02 
1069.902 5.68000000e+02 
1069.363 5.91000000e+02 
1068.824 5.78000000e+02 
1068.285 5.98000000e+02 
1067.746 5.94000000e+02 
1067.207 6.51000000e+02 
1066.668 5.59000000e+02 
1066.129 5.80000000e+02 
1065.590 5.72000000e+02 
1065.051 6.07000000e+02 
1064.512 5.97000000e+02 
1063.973 5.93000000e+02 
1063.434 5.78000000e+02 
1062.895 5.73000000e+02 
1062.355 5.98000000e+02 
1061.816 5.88000000e+02 
1061.277 5.68000000e+02 
1060.738 5.96000000e+02 
1060.199 6.08000000e+02 
1059.660 6.06000000e+02 
1059.121 5.87000000e+02 
1058.582 5.96000000e+02 
1058.043 6.04000000e+02 
1057.504 5.82000000e+02 
1056.965 6.32000000e+02 
1056.426 5.97000000e+02 
1055.887 5.75000000e+02 
1055.348 5.69000000e+02 
1054.809 5.66000000e+02 
1054.270 5.74000000e+02 
1053.730 5.99000000e+02 
1053.191 5.86000000e+02 
1052.652 5.68000000e+02 
1052.113 5.63000000e+02 
1051.574 5.94000000e+02 
1051.035 5.72000000e+02 
1050.496 6.22000000e+02 
1049.957 6.07000000e+02 
1049.418 5.96000000e+02 
1048.879 5.50000000e+02 
1048.340 5.93000000e+02 
1047.801 6.14000000e+02 
1047.262 5.88000000e+02 
1046.723 5.83000000e+02 
1046.184 5.97000000e+02 
1045.645 5.68000000e+02 
1045.105 5.77000000e+02 
1044.566 6.01000000e+02 
1044.027 5.77000000e+02 
1043.488 6.40000000e+02 
1042.949 5.92000000e+02 
1042.410 5.90000000e+02 
1041.871 5.89000000e+02 
1041.332 5.69000000e+02 
1040.793 5.98000000e+02 
1040.254 5.69000000e+02 
1039.715 5.46000000e+02 
1039.176 5.92000000e+02 
1038.637 5.65000000e+02 
1038.098 5.90000000e+02 
1037.559 5.64000000e+02 
1037.020 5.76000000e+02 
1036.480 5.35000000e+02 
1035.941 5.54000000e+02 
1035.402 6.12000000e+02 
1034.863 5.86000000e+02 
1034.324 5.83000000e+02 
1033.785 5.95000000e+02 
1033.246 6.15000000e+02 
1032.707 5.44000000e+02 
1032.168 5.84000000e+02 
1031.629 5.77000000e+02 
1031.090 5.98000000e+02 
1030.551 5.84000000e+02 
1030.012 5.77000000e+02 
1029.473 5.62000000e+02 
1028.934 6.04000000e+02 
1028.395 5.80000000e+02 
1027.855 6.27000000e+02 
1027.316 6.12000000e+02 
1026.777 6.32000000e+02 
1026.238 6.17000000e+02 
1025.699 6.03000000e+02 
1025.160 5.39000000e+02 
1024.621 6.24000000e+02 
1024.082 5.87000000e+02 
1023.543 5.59000000e+02 
1023.004 6.10000000e+02 
1022.465 5.87000000e+02 
1021.926 5.49000000e+02 
1021.387 5.57000000e+02 
1020.848 5.69000000e+02 
1020.309 6.33000000e+02 
1019.770 5.84000000e+02 
1019.230 5.51000000e+02 
1018.691 6.10000000e+02 
1018.152 5.39000000e+02 
1017.613 5.31000000e+02 
1017.074 5.53000000e+02 
1016.535 5.39000000e+02 
1015.996 5.80000000e+02 
1015.457 5.11000000e+02 
1014.918 5.43000000e+02 
1014.379 5.35000000e+02 
1013.840 5.97000000e+02 
1013.301 5.44000000e+02 
1012.762 5.38000000e+02 
1012.223 6.16000000e+02 
1011.684 5.81000000e+02 
1011.145 6.18000000e+02 
1010.605 5.97000000e+02 
1010.066 5.74000000e+02 
1009.527 5.90000000e+02 
1008.988 5.62000000e+02 
1008.449 5.59000000e+02 
1007.910 5.75000000e+02 
1007.371 5.79000000e+02 
1006.832 5.87000000e+02 
1006.293 5.58000000e+02 
1005.754 5.46000000e+02 
1005.215 5.50000000e+02 
1004.676 5.39000000e+02 
1004.137 5.18000000e+02 
1003.598 6.14000000e+02 
1003.059 5.83000000e+02 
1002.520 5.97000000e+02 
1001.980 5.88000000e+02 
1001.441 5.52000000e+02 
1000.902 5.89000000e+02 
1000.363 5.83000000e+02 
999.824  5.93000000e+02 
999.285  5.84000000e+02 
998.746  5.28000000e+02 
998.207  5.65000000e+02 
997.668  5.55000000e+02 
997.129  5.28000000e+02 
996.590  5.73000000e+02 
996.051  5.15000000e+02 
995.512  5.44000000e+02 
994.973  5.67000000e+02 
994.434  5.06000000e+02 
993.895  4.98000000e+02 
993.355  5.32000000e+02 
992.816  5.28000000e+02 
992.277  5.03000000e+02 
991.738  5.28000000e+02 
991.199  5.57000000e+02 
990.660  5.00000000e+02 
990.121  5.25000000e+02 
989.582  5.47000000e+02 
989.043  5.15000000e+02 
988.504  5.36000000e+02 
987.965  5.82000000e+02 
987.426  5.79000000e+02 
986.887  5.79000000e+02 
986.348  5.87000000e+02 
985.809  5.30000000e+02 
985.270  5.63000000e+02 
984.730  5.76000000e+02 
984.191  5.73000000e+02 
983.652  6.01000000e+02 
983.113  5.88000000e+02 
982.574  5.40000000e+02 
982.035  5.95000000e+02 
981.496  5.59000000e+02 
980.957  5.65000000e+02 
980.418  5.72000000e+02 
979.879  5.39000000e+02 
979.340  5.51000000e+02 
978.801  5.55000000e+02 
978.262  5.02000000e+02 
977.723  5.11000000e+02 
977.184  5.30000000e+02 
976.645  5.09000000e+02 
976.105  5.09000000e+02 
975.566  4.92000000e+02 
975.027  4.99000000e+02 
974.488  4.22000000e+02 
973.949  4.82000000e+02 
973.410  4.70000000e+02 
972.871  4.77000000e+02 
972.332  4.64000000e+02 
971.793  4.15000000e+02 
971.254  4.37000000e+02 
970.715  4.47000000e+02 
970.176  4.47000000e+02 
969.637  4.64000000e+02 
969.098  4.43000000e+02 
968.559  4.79000000e+02 
968.020  4.36000000e+02 
967.480  4.20000000e+02 
966.941  4.09000000e+02 
966.402  4.61000000e+02 
965.863  4.31000000e+02 
965.324  4.57000000e+02 
964.785  4.36000000e+02 
964.246  4.43000000e+02 
963.707  4.37000000e+02 
963.168  4.37000000e+02 
962.629  4.09000000e+02 
962.090  4.11000000e+02 
961.551  4.04000000e+02 
961.012  4.28000000e+02 
960.473  4.18000000e+02 
959.934  4.02000000e+02 
959.395  4.70000000e+02 
958.855  4.52000000e+02 
958.316  4.60000000e+02 
957.777  4.48000000e+02 
957.238  3.84000000e+02 
956.699  4.39000000e+02 
956.160  4.17000000e+02 
955.621  4.50000000e+02 
955.082  4.12000000e+02 
954.543  4.38000000e+02 
954.004  4.33000000e+02 
953.465  3.96000000e+02 
952.926  4.24000000e+02 
952.387  4.26000000e+02 
951.848  4.21000000e+02 
951.309  4.06000000e+02 
950.770  4.25000000e+02 
950.230  4.06000000e+02 
949.691  3.94000000e+02 
949.152  3.97000000e+02 
948.613  4.38000000e+02 
948.074  4.22000000e+02 
947.535  3.90000000e+02 
946.996  3.78000000e+02 
946.457  3.81000000e+02 
945.918  4.59000000e+02 
945.379  4.27000000e+02 
944.840  4.26000000e+02 
944.301  4.01000000e+02 
943.762  4.10000000e+02 
943.223  4.19000000e+02 
942.684  4.39000000e+02 
942.145  4.14000000e+02 
941.605  3.91000000e+02 
941.066  4.60000000e+02 
940.527  4.31000000e+02 
939.988  4.03000000e+02 
939.449  4.03000000e+02 
938.910  3.79000000e+02 
938.371  4.08000000e+02 
937.832  3.95000000e+02 
937.293  3.78000000e+02 
936.754  3.95000000e+02 
936.215  3.94000000e+02 
935.676  4.39000000e+02 
935.137  3.99000000e+02 
934.598  4.26000000e+02 
934.059  3.96000000e+02 
933.520  3.79000000e+02 
932.980  4.04000000e+02 
932.441  4.16000000e+02 
931.902  3.93000000e+02 
931.363  3.99000000e+02 
930.824  4.01000000e+02 
930.285  3.80000000e+02 
929.746  4.22000000e+02 
929.207  3.95000000e+02 
928.668  4.01000000e+02 
928.129  3.71000000e+02 
927.590  4.43000000e+02 
927.051  3.89000000e+02 
926.512  3.93000000e+02 
925.973  4.04000000e+02 
925.434  4.06000000e+02 
924.895  4.06000000e+02 
924.355  4.06000000e+02 
923.816  3.91000000e+02 
923.277  4.25000000e+02 
922.738  3.90000000e+02 
922.199  3.66000000e+02 
921.660  4.09000000e+02 
921.121  3.96000000e+02 
920.582  3.98000000e+02 
920.043  4.10000000e+02 
919.504  4.11000000e+02 
918.965  3.72000000e+02 
918.426  3.73000000e+02 
917.887  3.95000000e+02 
917.348  4.14000000e+02 
916.809  3.95000000e+02 
916.270  3.97000000e+02 
915.730  3.74000000e+02 
915.191  3.66000000e+02 
914.652  4.11000000e+02 
914.113  3.91000000e+02 
913.574  3.74000000e+02 
913.035  3.61000000e+02 
912.496  3.76000000e+02 
911.957  3.83000000e+02 
911.418  4.11000000e+02 
910.879  3.59000000e+02 
910.340  4.30000000e+02 
909.801  4.15000000e+02 
909.262  3.62000000e+02 
908.723  4.00000000e+02 
908.184  3.77000000e+02 
907.645  3.63000000e+02 
907.105  3.98000000e+02 
906.566  4.03000000e+02 
906.027  4.12000000e+02 
905.488  3.83000000e+02 
904.949  3.51000000e+02 
904.410  3.81000000e+02 
903.871  3.85000000e+02 
903.332  3.70000000e+02 
902.793  3.90000000e+02 
902.254  3.70000000e+02 
901.715  3.98000000e+02 
901.176  3.47000000e+02 
900.637  4.03000000e+02 
900.098  3.70000000e+02 
899.559  4.04000000e+02 
899.020  3.50000000e+02 
898.480  3.62000000e+02 
897.941  3.73000000e+02 
897.402  3.72000000e+02 
896.863  3.43000000e+02 
896.324  3.41000000e+02 
895.785  3.86000000e+02 
895.246  3.59000000e+02 
894.707  3.51000000e+02 
894.168  3.63000000e+02 
893.629  3.85000000e+02 
893.090  3.64000000e+02 
892.551  4.09000000e+02 
892.012  3.62000000e+02 
891.473  3.55000000e+02 
890.934  3.75000000e+02 
890.395  3.56000000e+02 
889.855  3.32000000e+02 
889.316  3.75000000e+02 
888.777  3.69000000e+02 
888.238  3.49000000e+02 
887.699  3.65000000e+02 
887.160  3.64000000e+02 
886.621  3.79000000e+02 
886.082  3.99000000e+02 
885.543  3.47000000e+02 
885.004  3.71000000e+02 
884.465  3.40000000e+02 
883.926  3.69000000e+02 
883.387  3.60000000e+02 
882.848  3.53000000e+02 
882.309  3.59000000e+02 
881.770  3.84000000e+02 
881.230  3.84000000e+02 
880.691  3.38000000e+02 
880.152  3.66000000e+02 
879.613  3.25000000e+02 
879.074  3.67000000e+02 
878.535  3.57000000e+02 
877.996  3.75000000e+02 
877.457  3.52000000e+02 
876.918  3.53000000e+02 
876.379  3.55000000e+02 
875.840  3.46000000e+02 
875.301  3.36000000e+02 
874.762  3.58000000e+02 
874.223  3.88000000e+02 
873.684  3.58000000e+02 
873.145  3.81000000e+02 
872.605  3.61000000e+02 
872.066  3.43000000e+02 
871.527  3.62000000e+02 
870.988  3.98000000e+02 
870.449  3.47000000e+02 
869.910  3.52000000e+02 
869.371  3.58000000e+02 
868.832  3.82000000e+02 
868.293  3.50000000e+02 
867.754  3.66000000e+02 
867.215  3.52000000e+02 
866.676  3.79000000e+02 
866.137  3.24000000e+02 
865.598  3.48000000e+02 
865.059  3.74000000e+02 
864.520  3.12000000e+02 
863.980  3.75000000e+02 
863.441  3.58000000e+02 
862.902  3.77000000e+02 
862.363  3.60000000e+02 
861.824  3.46000000e+02 
861.285  3.55000000e+02 
860.746  3.76000000e+02 
860.207  3.58000000e+02 
859.668  3.70000000e+02 
859.129  3.65000000e+02 
858.590  3.68000000e+02 
858.051  3.51000000e+02 
857.512  3.30000000e+02 
856.973  3.79000000e+02 
856.434  3.60000000e+02 
855.895  3.30000000e+02 
855.355  3.82000000e+02 
854.816  3.62000000e+02 
854.277  3.62000000e+02 
853.738  3.20000000e+02 
853.199  4.00000000e+02 
852.660  3.65000000e+02 
852.121  3.35000000e+02 
851.582  3.47000000e+02 
851.043  3.24000000e+02 
850.504  3.79000000e+02 
849.965  3.50000000e+02 
849.426  3.48000000e+02 
848.887  3.37000000e+02 
848.348  3.30000000e+02 
847.809  3.78000000e+02 
847.270  3.58000000e+02 
846.730  3.40000000e+02 
846.191  3.40000000e+02 
845.652  3.41000000e+02 
845.113  3.44000000e+02 
844.574  3.64000000e+02 
844.035  3.33000000e+02 
843.496  3.39000000e+02 
842.957  3.20000000e+02 
842.418  3.71000000e+02 
841.879  3.47000000e+02 
841.340  3.20000000e+02 
840.801  3.27000000e+02 
840.262  3.44000000e+02 
839.723  3.10000000e+02 
839.184  3.40000000e+02 
838.645  3.52000000e+02 
838.105  2.87000000e+02 
837.566  3.24000000e+02 
837.027  3.73000000e+02 
836.488  3.08000000e+02 
835.949  2.97000000e+02 
835.410  3.26000000e+02 
834.871  3.22000000e+02 
834.332  3.29000000e+02 
833.793  3.56000000e+02 
833.254  3.37000000e+02 
832.715  3.34000000e+02 
832.176  3.47000000e+02 
831.637  3.40000000e+02 
831.098  3.87000000e+02 
830.559  3.17000000e+02 
830.020  3.44000000e+02 
829.480  3.43000000e+02 
828.941  3.34000000e+02 
828.402  3.33000000e+02 
827.863  3.32000000e+02 
827.324  3.15000000e+02 
826.785  3.20000000e+02 
826.246  3.49000000e+02 
825.707  3.59000000e+02 
825.168  3.03000000e+02 
824.629  3.43000000e+02 
824.090  3.17000000e+02 
823.551  3.07000000e+02 
823.012  3.31000000e+02 
822.473  3.32000000e+02 
821.934  3.22000000e+02 
821.395  3.16000000e+02 
820.855  3.53000000e+02 
820.316  3.11000000e+02 
819.777  3.63000000e+02 
819.238  3.13000000e+02 
818.699  3.49000000e+02 
818.160  3.30000000e+02 
817.621  3.05000000e+02 
817.082  3.42000000e+02 
816.543  3.28000000e+02 
816.004  2.70000000e+02 
815.465  3.32000000e+02 
814.926  3.00000000e+02 
814.387  3.41000000e+02 
813.848  3.12000000e+02 
813.309  3.33000000e+02 
812.770  2.88000000e+02 
812.230  3.37000000e+02 
811.691  2.99000000e+02 
811.152  3.35000000e+02 
810.613  3.33000000e+02 
810.074  3.16000000e+02 
809.535  3.54000000e+02 
808.996  3.49000000e+02 
808.457  3.33000000e+02 
807.918  3.38000000e+02 
807.379  3.15000000e+02 
806.840  3.40000000e+02 
806.301  3.18000000e+02 
805.762  3.07000000e+02 
805.223  3.37000000e+02 
804.684  3.29000000e+02 
804.145  3.49000000e+02 
803.605  2.81000000e+02 
803.066  3.21000000e+02 
802.527  3.72000000e+02 
801.988  3.37000000e+02 
801.449  3.50000000e+02 
800.910  3.30000000e+02 
800.371  3.15000000e+02 
799.832  3.48000000e+02 
799.293  3.26000000e+02 
798.754  3.36000000e+02 
798.215  3.66000000e+02 
797.676  3.27000000e+02 
797.137  3.35000000e+02 
796.598  2.94000000e+02 
796.059  3.34000000e+02 
795.520  3.13000000e+02 
794.980  3.08000000e+02 
794.441  3.05000000e+02 
793.902  3.48000000e+02 
793.363  3.32000000e+02 
792.824  3.51000000e+02 
792.285  3.15000000e+02 
791.746  3.26000000e+02 
791.207  3.39000000e+02 
790.668  3.02000000e+02 
790.129  3.19000000e+02 
789.590  3.41000000e+02 
789.051  3.09000000e+02 
788.512  3.13000000e+02 
787.973  3.52000000e+02 
787.434  3.16000000e+02 
786.895  2.87000000e+02 
786.355  3.41000000e+02 
785.816  3.34000000e+02 
785.277  3.12000000e+02 
784.738  3.02000000e+02 
784.199  3.01000000e+02 
783.660  3.21000000e+02 
783.121  3.25000000e+02 
782.582  3.22000000e+02 
782.043  3.52000000e+02 
781.504  3.29000000e+02 
780.965  3.10000000e+02 
780.426  2.90000000e+02 
779.887  3.43000000e+02 
779.348  3.25000000e+02 
778.809  3.45000000e+02 
778.270  3.28000000e+02 
777.730  3.54000000e+02 
777.191  3.34000000e+02 
776.652  3.28000000e+02 
776.113  3.24000000e+02 
775.574  3.63000000e+02 
775.035  3.30000000e+02 
774.496  3.38000000e+02 
773.957  3.34000000e+02 
773.418  3.27000000e+02 
772.879  3.38000000e+02 
772.340  3.13000000e+02 
771.801  3.14000000e+02 
771.262  3.21000000e+02 
770.723  3.28000000e+02 
770.184  3.00000000e+02 
769.645  3.01000000e+02 
769.105  3.17000000e+02 
768.566  2.79000000e+02 
768.027  3.23000000e+02 
767.488  3.26000000e+02 
766.949  2.92000000e+02 
766.410  3.16000000e+02 
765.871  3.28000000e+02 
765.332  2.96000000e+02 
764.793  2.78000000e+02 
764.254  3.23000000e+02 
763.715  3.34000000e+02 
763.176  3.00000000e+02 
762.637  3.09000000e+02 
762.098  2.75000000e+02 
761.559  3.06000000e+02 
761.020  3.39000000e+02 
760.480  3.18000000e+02 
759.941  2.82000000e+02 
759.402  3.00000000e+02 
758.863  3.09000000e+02 
758.324  3.13000000e+02 
757.785  3.03000000e+02 
757.246  2.69000000e+02 
756.707  2.79000000e+02 
756.168  2.79000000e+02 
755.629  3.13000000e+02 
755.090  2.81000000e+02 
754.551  3.17000000e+02 
754.012  3.17000000e+02 
753.473  3.20000000e+02 
752.934  3.16000000e+02 
752.395  3.07000000e+02 
751.855  3.12000000e+02 
751.316  3.06000000e+02 
750.777  3.01000000e+02 
750.238  3.28000000e+02 
749.699  3.07000000e+02 
749.160  2.97000000e+02 
748.621  2.89000000e+02 
748.082  2.85000000e+02 
747.543  2.85000000e+02 
747.004  3.17000000e+02 
746.465  3.19000000e+02 
745.926  3.47000000e+02 
745.387  2.92000000e+02 
744.848  3.27000000e+02 
744.309  3.34000000e+02 
743.770  3.20000000e+02 
743.230  2.97000000e+02 
742.691  2.83000000e+02 
742.152  3.27000000e+02 
741.613  2.62000000e+02 
741.074  3.40000000e+02 
740.535  2.78000000e+02 
739.996  2.94000000e+02 
739.457  3.01000000e+02 
738.918  3.20000000e+02 
738.379  2.93000000e+02 
737.840  3.10000000e+02 
737.301  2.95000000e+02 
736.762  2.90000000e+02 
736.223  3.30000000e+02 
735.684  2.85000000e+02 
735.145  3.00000000e+02 
734.605  2.89000000e+02 
734.066  3.24000000e+02 
733.527  2.78000000e+02 
732.988  2.93000000e+02 
732.449  3.29000000e+02 
731.910  2.85000000e+02 
731.371  3.03000000e+02 
730.832  2.78000000e+02 
730.293  3.27000000e+02 
729.754  3.09000000e+02 
729.215  2.93000000e+02 
728.676  2.82000000e+02 
728.137  2.99000000e+02 
727.598  2.74000000e+02 
727.059  2.89000000e+02 
726.520  2.91000000e+02 
725.980  2.91000000e+02 
725.441  2.56000000e+02 
724.902  2.83000000e+02 
724.363  2.87000000e+02 
723.824  2.90000000e+02 
723.285  3.07000000e+02 
722.746  2.87000000e+02 
722.207  2.80000000e+02 
721.668  2.92000000e+02 
721.129  3.18000000e+02 
720.590  3.10000000e+02 
720.051  3.02000000e+02 
719.512  2.87000000e+02 
718.973  2.80000000e+02 
718.434  3.00000000e+02 
717.895  3.19000000e+02 
717.355  2.96000000e+02 
716.816  3.11000000e+02 
716.277  3.15000000e+02 
715.738  2.88000000e+02 
715.199  3.20000000e+02 
714.660  3.07000000e+02 
714.121  2.67000000e+02 
713.582  2.99000000e+02 
713.043  2.94000000e+02 
712.504  2.64000000e+02 
711.965  3.12000000e+02 
711.426  2.98000000e+02 
710.887  2.97000000e+02 
710.348  2.95000000e+02 
709.809  2.69000000e+02 
709.270  2.95000000e+02 
708.730  2.88000000e+02 
708.191  2.88000000e+02 
707.652  2.82000000e+02 
707.113  2.65000000e+02 
706.574  2.83000000e+02 
706.035  2.87000000e+02 
705.496  3.03000000e+02 
704.957  3.07000000e+02 
704.418  2.87000000e+02 
703.879  2.76000000e+02 
703.340  2.78000000e+02 
702.801  2.93000000e+02 
702.262  2.95000000e+02 
701.723  2.85000000e+02 
701.184  3.42000000e+02 
700.645  2.79000000e+02 
700.105  2.95000000e+02 
699.566  2.70000000e+02 
699.027  3.06000000e+02 
698.488  2.77000000e+02 
697.949  2.53000000e+02 
697.410  2.75000000e+02 
696.871  2.96000000e+02 
696.332  2.80000000e+02 
695.793  3.04000000e+02 
695.254  3.08000000e+02 
694.715  3.13000000e+02 
694.176  2.74000000e+02 
693.637  2.93000000e+02 
693.098  2.96000000e+02 
692.559  3.01000000e+02 
692.020  2.85000000e+02 
691.480  2.79000000e+02 
690.941  2.99000000e+02 
690.402  2.94000000e+02 
689.863  2.98000000e+02 
689.324  2.95000000e+02 
688.785  2.58000000e+02 
688.246  2.77000000e+02 
687.707  2.92000000e+02 
687.168  2.82000000e+02 
686.629  3.00000000e+02 
686.090  2.63000000e+02 
685.551  2.70000000e+02 
685.012  2.67000000e+02 
684.473  2.91000000e+02 
683.934  2.97000000e+02 
683.395  2.95000000e+02 
682.855  3.19000000e+02 
682.316  3.03000000e+02 
681.777  3.01000000e+02 
681.238  2.91000000e+02 
680.699  2.88000000e+02 
680.160  3.10000000e+02 
679.621  2.74000000e+02 
679.082  2.90000000e+02 
678.543  2.77000000e+02 
678.004  2.83000000e+02 
677.465  2.90000000e+02 
676.926  2.79000000e+02 
676.387  2.97000000e+02 
675.848  2.86000000e+02 
675.309  2.72000000e+02 
674.770  2.94000000e+02 
674.230  3.08000000e+02 
673.691  3.12000000e+02 
673.152  3.05000000e+02 
672.613  2.49000000e+02 
672.074  2.69000000e+02 
671.535  2.99000000e+02 
670.996  2.77000000e+02 
670.457  2.67000000e+02 
669.918  3.00000000e+02 
669.379  2.77000000e+02 
668.840  2.89000000e+02 
668.301  2.95000000e+02 
667.762  2.70000000e+02 
667.223  2.73000000e+02 
666.684  2.74000000e+02 
666.145  2.78000000e+02 
665.605  2.95000000e+02 
665.066  2.92000000e+02 
664.527  3.23000000e+02 
663.988  2.83000000e+02 
663.449  2.69000000e+02 
662.910  2.74000000e+02 
662.371  2.71000000e+02 
661.832  2.86000000e+02 
661.293  2.69000000e+02 
660.754  3.04000000e+02 
660.215  2.99000000e+02 
659.676  3.09000000e+02 
659.137  2.99000000e+02 
658.598  2.92000000e+02 
658.059  3.09000000e+02 
657.520  3.15000000e+02 
656.980  3.00000000e+02 
656.441  3.04000000e+02 
655.902  2.89000000e+02 
655.363  2.85000000e+02 
654.824  3.03000000e+02 
654.285  2.83000000e+02 
653.746  2.93000000e+02 
653.207  2.71000000e+02 
652.668  3.15000000e+02 
652.129  2.90000000e+02 
651.590  2.61000000e+02 
651.051  2.94000000e+02 
650.512  2.74000000e+02 
649.973  3.01000000e+02 
649.434  3.16000000e+02 
648.895  2.93000000e+02 
648.355  3.03000000e+02 
647.816  3.15000000e+02 
647.277  3.21000000e+02 
646.738  3.06000000e+02 
646.199  3.61000000e+02 
645.660  3.22000000e+02 
645.121  2.77000000e+02 
644.582  2.67000000e+02 
644.043  2.91000000e+02 
643.504  2.56000000e+02 
642.965  2.42000000e+02 
642.426  2.83000000e+02 
641.887  2.88000000e+02 
641.348  2.80000000e+02 
640.809  2.56000000e+02 
640.270  2.81000000e+02 
639.730  2.45000000e+02 
639.191  2.43000000e+02 
638.652  2.55000000e+02 
638.113  2.66000000e+02 
637.574  2.48000000e+02 
637.035  2.37000000e+02 
636.496  2.26000000e+02 
635.957  2.64000000e+02 
635.418  2.53000000e+02 
634.879  2.78000000e+02 
634.340  2.32000000e+02 
633.801  2.47000000e+02 
633.262  2.76000000e+02 
632.723  2.71000000e+02 
632.184  2.65000000e+02 
631.645  2.60000000e+02 
631.105  2.57000000e+02 
630.566  2.54000000e+02 
630.027  2.43000000e+02 
629.488  2.40000000e+02 
628.949  2.88000000e+02 
628.410  2.69000000e+02 
627.871  2.64000000e+02 
627.332  2.66000000e+02 
626.793  2.54000000e+02 
626.254  2.38000000e+02 
625.715  2.79000000e+02 
625.176  2.92000000e+02 
624.637  2.78000000e+02 
624.098  2.54000000e+02 
623.559  2.60000000e+02 
623.020  2.87000000e+02 
622.480  2.42000000e+02 
621.941  2.45000000e+02 
621.402  2.65000000e+02 
620.863  2.97000000e+02 
620.324  2.55000000e+02 
619.785  2.59000000e+02 
619.246  2.47000000e+02 
618.707  2.42000000e+02 
618.168  2.52000000e+02 
617.629  2.77000000e+02 
617.090  2.56000000e+02 
616.551  2.59000000e+02 
616.012  2.58000000e+02 
615.473  2.76000000e+02 
614.934  2.66000000e+02 
614.395  2.51000000e+02 
613.855  2.73000000e+02 
613.316  2.60000000e+02 
612.777  2.61000000e+02 
612.238  2.78000000e+02 
611.699  2.77000000e+02 
611.160  2.72000000e+02 
610.621  2.59000000e+02 
610.082  2.72000000e+02 
609.543  2.45000000e+02 
609.004  2.66000000e+02 
608.465  2.66000000e+02 
607.926  2.67000000e+02 
607.387  2.69000000e+02 
606.848  2.59000000e+02 
606.309  2.93000000e+02 
605.770  2.80000000e+02 
605.230  2.88000000e+02 
604.691  2.77000000e+02 
604.152  2.60000000e+02 
603.613  2.75000000e+02 
603.074  2.84000000e+02 
602.535  2.54000000e+02 
601.996  2.82000000e+02 
601.457  2.86000000e+02 
600.918  2.80000000e+02 
600.379  2.75000000e+02 
599.840  2.47000000e+02 
599.301  2.47000000e+02 
598.762  2.56000000e+02 
598.223  2.58000000e+02 
597.684  2.68000000e+02 
597.145  3.09000000e+02 
596.605  2.59000000e+02 
596.066  2.77000000e+02 
595.527  2.55000000e+02 
594.988  2.73000000e+02 
594.449  2.73000000e+02 
593.910  2.82000000e+02 
593.371  2.90000000e+02 
592.832  2.84000000e+02 
592.293  2.82000000e+02 
591.754  2.71000000e+02 
591.215  2.90000000e+02 
590.676  2.81000000e+02 
590.137  2.75000000e+02 
589.598  2.85000000e+02 
589.059  2.72000000e+02 
588.520  2.60000000e+02 
587.980  2.71000000e+02 
587.441  2.83000000e+02 
586.902  2.95000000e+02 
586.363  2.61000000e+02 
585.824  2.90000000e+02 
585.285  2.74000000e+02 
584.746  2.84000000e+02 
584.207  2.99000000e+02 
583.668  2.85000000e+02 
583.129  2.86000000e+02 
582.590  2.69000000e+02 
582.051  2.67000000e+02 
581.512  2.79000000e+02 
580.973  2.54000000e+02 
580.434  2.81000000e+02 
579.895  2.72000000e+02 
579.355  2.67000000e+02 
578.816  2.55000000e+02 
578.277  2.55000000e+02 
577.738  2.77000000e+02 
577.199  2.72000000e+02 
576.660  2.51000000e+02 
576.121  2.86000000e+02 
575.582  2.70000000e+02 
575.043  2.61000000e+02 
574.504  2.52000000e+02 
573.965  2.56000000e+02 
573.426  2.77000000e+02 
572.887  2.78000000e+02 
572.348  2.55000000e+02 
571.809  2.60000000e+02 
571.270  2.73000000e+02 
570.730  2.81000000e+02 
570.191  2.65000000e+02 
569.652  2.57000000e+02 
569.113  2.47000000e+02 
568.574  2.92000000e+02 
568.035  2.94000000e+02 
567.496  2.73000000e+02 
566.957  2.97000000e+02 
566.418  2.44000000e+02 
565.879  2.65000000e+02 
565.340  2.80000000e+02 
564.801  2.70000000e+02 
564.262  2.68000000e+02 
563.723  2.88000000e+02 
563.184  2.91000000e+02 
562.645  2.70000000e+02 
562.105  3.03000000e+02 
561.566  2.80000000e+02 
561.027  2.88000000e+02 
560.488  2.74000000e+02 
559.949  2.93000000e+02 
559.410  2.52000000e+02 
558.871  3.18000000e+02 
558.332  2.82000000e+02 
557.793  2.82000000e+02 
557.254  2.42000000e+02 
556.715  2.80000000e+02 
556.176  2.89000000e+02 
555.637  2.75000000e+02 
555.098  2.42000000e+02 
554.559  2.71000000e+02 
554.020  2.69000000e+02 
553.480  2.48000000e+02 
552.941  2.69000000e+02 
552.402  2.55000000e+02 
551.863  2.64000000e+02 
551.324  2.51000000e+02 
550.785  2.52000000e+02 
550.246  2.33000000e+02 
549.707  2.38000000e+02 
549.168  2.27000000e+02 
548.629  1.97000000e+02 
548.090  1.98000000e+02 
547.551  2.27000000e+02 
547.012  2.14000000e+02 
546.473  2.25000000e+02 
545.934  2.28000000e+02 
545.395  2.32000000e+02 
544.855  2.15000000e+02 
544.316  2.12000000e+02 
543.777  1.81000000e+02 
543.238  1.98000000e+02 
542.699  1.81000000e+02 
542.160  1.83000000e+02 
541.621  2.13000000e+02 
541.082  2.32000000e+02 
540.543  2.34000000e+02 
540.004  2.64000000e+02 
539.465  2.73000000e+02 
538.926  2.80000000e+02 
538.387  3.52000000e+02 
537.848  4.84000000e+02 
537.309  6.61000000e+02 
536.770  8.18000000e+02 
536.230  9.22000000e+02 
535.691  7.07000000e+02 
535.152  5.02000000e+02 
534.613  3.61000000e+02 
534.074  2.43000000e+02 
533.535  1.98000000e+02 
532.996  1.58000000e+02 
532.457  1.49000000e+02 
531.918  1.35000000e+02 
531.379  1.41000000e+02 
530.840  1.50000000e+02 
530.301  1.49000000e+02 
529.762  1.51000000e+02 
529.223  1.45000000e+02 
528.684  1.56000000e+02 
528.145  1.68000000e+02 
527.605  2.08000000e+02 
527.066  1.63000000e+02 
526.527  1.64000000e+02 
525.988  1.59000000e+02 
525.449  1.44000000e+02 
524.910  1.44000000e+02 
524.371  1.33000000e+02 
523.832  1.57000000e+02 
523.293  1.33000000e+02 
522.754  1.55000000e+02 
522.215  1.36000000e+02 
521.676  1.52000000e+02 
521.137  1.64000000e+02 
520.598  1.39000000e+02 
520.059  1.47000000e+02 
519.520  1.41000000e+02 
518.980  1.40000000e+02 
518.441  1.36000000e+02 
517.902  1.33000000e+02 
517.363  1.48000000e+02 
516.824  1.50000000e+02 
516.285  1.49000000e+02 
515.746  1.35000000e+02 
515.207  1.46000000e+02 
514.668  1.51000000e+02 
514.129  1.45000000e+02 
513.590  1.57000000e+02 
513.051  1.28000000e+02 
512.512  1.41000000e+02 
511.973  1.23000000e+02 
511.434  1.16000000e+02 
510.895  1.22000000e+02 
510.355  1.33000000e+02 
509.816  1.20000000e+02 
509.277  1.01000000e+02 
508.738  1.32000000e+02 
508.199  1.41000000e+02 
507.660  1.46000000e+02 
507.121  1.25000000e+02 
506.582  1.46000000e+02 
506.043  1.55000000e+02 
505.504  1.51000000e+02 
504.965  1.48000000e+02 
504.426  1.59000000e+02 
503.887  1.63000000e+02 
503.348  1.93000000e+02 
502.809  2.43000000e+02 
502.270  2.84000000e+02 
501.730  3.11000000e+02 
501.191  3.22000000e+02 
500.652  2.95000000e+02 
500.113  1.91000000e+02 
499.574  1.48000000e+02 
499.035  1.16000000e+02 
498.496  9.40000000e+01 
497.957  1.17000000e+02 
497.418  9.30000000e+01 
496.879  1.10000000e+02 
496.340  7.00000000e+01 
495.801  8.60000000e+01 
495.262  9.30000000e+01 
494.723  7.80000000e+01 
494.184  1.01000000e+02 
493.645  7.40000000e+01 
493.105  8.10000000e+01 
492.566  7.60000000e+01 
492.027  8.50000000e+01 
491.488  7.90000000e+01 
490.949  9.00000000e+01 
490.410  9.40000000e+01 
489.871  9.60000000e+01 
489.332  8.20000000e+01 
488.793  9.10000000e+01 
488.254  8.20000000e+01 
487.715  9.80000000e+01 
487.176  7.70000000e+01 
486.637  9.40000000e+01 
486.098  7.00000000e+01 
485.559  1.03000000e+02 
485.020  1.00000000e+02 
484.480  9.20000000e+01 
483.941  9.00000000e+01 
483.402  8.20000000e+01 
482.863  9.20000000e+01 
482.324  8.50000000e+01 
481.785  9.50000000e+01 
481.246  1.01000000e+02 
480.707  9.50000000e+01 
480.168  7.80000000e+01 
479.629  9.80000000e+01 
479.090  1.01000000e+02 
478.551  7.50000000e+01 
478.012  1.07000000e+02 
477.473  8.20000000e+01 
476.934  8.00000000e+01 
476.395  9.40000000e+01 
475.855  9.70000000e+01 
475.316  8.90000000e+01 
474.777  8.80000000e+01 
474.238  8.00000000e+01 
473.699  8.50000000e+01 
473.160  8.70000000e+01 
472.621  8.00000000e+01 
472.082  7.70000000e+01 
471.543  8.40000000e+01 
471.004  9.00000000e+01 
470.465  9.10000000e+01 
469.926  8.60000000e+01 
469.387  8.80000000e+01 
468.848  6.70000000e+01 
468.309  8.30000000e+01 
467.770  8.10000000e+01 
467.230  8.10000000e+01 
466.691  8.50000000e+01 
466.152  8.50000000e+01 
465.613  8.40000000e+01 
465.074  8.10000000e+01 
464.535  7.20000000e+01 
463.996  8.90000000e+01 
463.457  8.20000000e+01 
462.918  9.40000000e+01 
462.379  9.10000000e+01 
461.840  9.10000000e+01 
461.301  9.20000000e+01 
460.762  9.10000000e+01 
460.223  9.00000000e+01 
459.684  9.10000000e+01 
459.145  8.70000000e+01 
458.605  8.50000000e+01 
458.066  1.21000000e+02 
457.527  1.17000000e+02 
456.988  1.10000000e+02 
456.449  9.30000000e+01 
455.910  9.80000000e+01 
455.371  9.40000000e+01 
454.832  9.70000000e+01 
454.293  9.20000000e+01 
453.754  9.30000000e+01 
453.215  8.90000000e+01 
452.676  7.50000000e+01 
452.137  8.10000000e+01 
451.598  8.90000000e+01 
451.059  8.90000000e+01 
450.520  8.40000000e+01 
449.980  8.90000000e+01 
449.441  8.90000000e+01 
448.902  1.17000000e+02 
448.363  8.20000000e+01 
447.824  8.90000000e+01 
447.285  8.20000000e+01 
446.746  8.40000000e+01 
446.207  1.09000000e+02 
445.668  1.03000000e+02 
445.129  7.90000000e+01 
444.590  8.20000000e+01 
444.051  1.09000000e+02 
443.512  1.04000000e+02 
442.973  9.50000000e+01 
442.434  1.07000000e+02 
441.895  9.90000000e+01 
441.355  8.00000000e+01 
440.816  8.50000000e+01 
440.277  9.90000000e+01 
439.738  9.60000000e+01 
439.199  8.30000000e+01 
438.660  8.90000000e+01 
438.121  7.80000000e+01 
437.582  7.70000000e+01 
437.043  9.70000000e+01 
436.504  9.30000000e+01 
435.965  8.00000000e+01 
435.426  9.70000000e+01 
434.887  7.50000000e+01 
434.348  7.60000000e+01 
433.809  9.00000000e+01 
433.270  9.00000000e+01 
432.730  9.30000000e+01 
432.191  9.70000000e+01 
431.652  9.70000000e+01 
431.113  8.30000000e+01 
430.574  9.20000000e+01 
430.035  9.00000000e+01 
429.496  9.10000000e+01 
428.957  8.60000000e+01 
428.418  9.30000000e+01 
427.879  8.60000000e+01 
427.340  9.20000000e+01 
426.801  9.80000000e+01 
426.262  9.00000000e+01 
425.723  9.60000000e+01 
425.184  9.50000000e+01 
424.645  8.50000000e+01 
424.105  9.00000000e+01 
423.566  8.00000000e+01 
423.027  8.70000000e+01 
422.488  9.10000000e+01 
421.949  8.20000000e+01 
421.410  8.60000000e+01 
420.871  9.00000000e+01 
420.332  8.60000000e+01 
419.793  1.00000000e+02 
419.254  9.50000000e+01 
418.715  8.30000000e+01 
418.176  7.70000000e+01 
417.637  8.90000000e+01 
417.098  8.60000000e+01 
416.559  8.90000000e+01 
416.020  8.50000000e+01 
415.480  1.07000000e+02 
414.941  1.01000000e+02 
414.402  8.70000000e+01 
413.863  8.80000000e+01 
413.324  8.50000000e+01 
412.785  8.30000000e+01 
412.246  1.09000000e+02 
411.707  1.08000000e+02 
411.168  9.30000000e+01 
410.629  9.20000000e+01 
410.090  7.80000000e+01 
409.551  8.30000000e+01 
409.012  9.50000000e+01 
408.473  8.60000000e+01 
407.934  9.10000000e+01 
407.395  6.50000000e+01 
406.855  8.40000000e+01 
406.316  8.70000000e+01 
405.777  8.90000000e+01 
405.238  1.01000000e+02 
404.699  1.22000000e+02 
404.160  1.24000000e+02 
403.621  9.50000000e+01 
403.082  9.00000000e+01 
402.543  1.01000000e+02 
402.004  8.90000000e+01 
401.465  9.90000000e+01 
400.926  1.02000000e+02 
400.387  9.80000000e+01 
399.848  8.80000000e+01 
399.309  1.04000000e+02 
398.770  8.70000000e+01 
398.230  8.90000000e+01 
397.691  9.70000000e+01 
397.152  8.50000000e+01 
396.613  9.30000000e+01 
396.074  1.01000000e+02 
395.535  9.10000000e+01 
394.996  8.20000000e+01 
394.457  9.20000000e+01 
393.918  8.80000000e+01 
393.379  1.01000000e+02 
392.840  7.80000000e+01 
392.301  1.07000000e+02 
391.762  8.80000000e+01 
391.223  8.90000000e+01 
390.684  9.30000000e+01 
390.145  8.70000000e+01 
389.605  8.00000000e+01 
389.066  8.30000000e+01 
388.527  8.50000000e+01 
387.988  8.90000000e+01 
387.449  9.20000000e+01 
386.910  8.80000000e+01 
386.371  7.60000000e+01 
385.832  9.70000000e+01 
385.293  8.60000000e+01 
384.754  7.90000000e+01 
384.215  8.40000000e+01 
383.676  1.05000000e+02 
383.137  8.20000000e+01 
382.598  1.02000000e+02 
382.059  8.80000000e+01 
381.520  8.80000000e+01 
380.980  9.90000000e+01 
380.441  9.10000000e+01 
379.902  9.90000000e+01 
379.363  9.20000000e+01 
378.824  8.20000000e+01 
378.285  8.60000000e+01 
377.746  9.10000000e+01 
377.207  1.01000000e+02 
376.668  7.10000000e+01 
376.129  8.70000000e+01 
375.590  1.06000000e+02 
375.051  7.90000000e+01 
374.512  9.90000000e+01 
373.973  8.30000000e+01 
373.434  8.30000000e+01 
372.895  1.07000000e+02 
372.355  1.05000000e+02 
371.816  9.30000000e+01 
371.277  8.00000000e+01 
370.738  7.60000000e+01 
370.199  9.50000000e+01 
369.660  8.00000000e+01 
369.121  8.20000000e+01 
368.582  8.40000000e+01 
368.043  8.00000000e+01 
367.504  9.80000000e+01 
366.965  8.90000000e+01 
366.426  9.70000000e+01 
365.887  9.30000000e+01 
365.348  8.30000000e+01 
364.809  8.20000000e+01 
364.270  9.10000000e+01 
363.730  1.00000000e+02 
363.191  9.80000000e+01 
362.652  8.50000000e+01 
362.113  7.70000000e+01 
361.574  9.30000000e+01 
361.035  8.10000000e+01 
360.496  1.09000000e+02 
359.957  7.20000000e+01 
359.418  1.07000000e+02 
358.879  7.40000000e+01 
358.340  1.05000000e+02 
357.801  7.90000000e+01 
357.262  9.60000000e+01 
356.723  1.04000000e+02 
356.184  1.15000000e+02 
355.645  1.07000000e+02 
355.105  1.11000000e+02 
354.566  8.80000000e+01 
354.027  8.30000000e+01 
353.488  9.20000000e+01 
352.949  1.21000000e+02 
352.410  1.16000000e+02 
351.871  1.32000000e+02 
351.332  1.23000000e+02 
350.793  9.50000000e+01 
350.254  1.00000000e+02 
349.715  9.90000000e+01 
349.176  1.03000000e+02 
348.637  7.90000000e+01 
348.098  9.80000000e+01 
347.559  1.01000000e+02 
347.020  9.20000000e+01 
346.480  8.90000000e+01 
345.941  9.40000000e+01 
345.402  8.80000000e+01 
344.863  8.40000000e+01 
344.324  9.10000000e+01 
343.785  8.80000000e+01 
343.246  1.04000000e+02 
342.707  1.01000000e+02 
342.168  1.00000000e+02 
341.629  9.10000000e+01 
341.090  7.10000000e+01 
340.551  1.01000000e+02 
340.012  9.60000000e+01 
339.473  1.06000000e+02 
338.934  8.50000000e+01 
338.395  1.06000000e+02 
337.855  9.20000000e+01 
337.316  7.50000000e+01 
336.777  1.09000000e+02 
336.238  9.60000000e+01 
335.699  9.50000000e+01 
335.160  1.00000000e+02 
334.621  8.40000000e+01 
334.082  7.40000000e+01 
333.543  7.80000000e+01 
333.004  7.80000000e+01 
332.465  9.60000000e+01 
331.926  9.60000000e+01 
331.387  7.90000000e+01 
330.848  8.90000000e+01 
330.309  9.80000000e+01 
329.770  8.10000000e+01 
329.230  8.30000000e+01 
328.691  9.50000000e+01 
328.152  9.40000000e+01 
327.613  1.06000000e+02 
327.074  8.80000000e+01 
326.535  8.10000000e+01 
325.996  8.70000000e+01 
325.457  9.10000000e+01 
324.918  8.60000000e+01 
324.379  9.80000000e+01 
323.840  9.00000000e+01 
323.301  1.15000000e+02 
322.762  8.80000000e+01 
322.223  1.05000000e+02 
321.684  8.90000000e+01 
321.145  1.25000000e+02 
320.605  9.70000000e+01 
320.066  1.16000000e+02 
319.527  1.01000000e+02 
318.988  1.02000000e+02 
318.449  8.00000000e+01 
317.910  1.03000000e+02 
317.371  1.02000000e+02 
316.832  8.60000000e+01 
316.293  1.00000000e+02 
315.754  8.80000000e+01 
315.215  9.40000000e+01 
314.676  1.01000000e+02 
314.137  9.80000000e+01 
313.598  1.08000000e+02 
313.059  1.14000000e+02 
312.520  9.10000000e+01 
311.980  1.32000000e+02 
311.441  1.14000000e+02 
310.902  1.29000000e+02 
310.363  1.06000000e+02 
309.824  1.02000000e+02 
309.285  9.00000000e+01 
308.746  9.80000000e+01 
308.207  9.10000000e+01 
307.668  8.60000000e+01 
307.129  9.90000000e+01 
306.590  8.20000000e+01 
306.051  8.80000000e+01 
305.512  8.50000000e+01 
304.973  7.50000000e+01 
304.434  9.60000000e+01 
303.895  9.60000000e+01 
303.355  7.90000000e+01 
302.816  6.50000000e+01 
302.277  7.70000000e+01 
301.738  8.00000000e+01 
301.199  8.80000000e+01 
300.660  8.50000000e+01 
300.121  9.10000000e+01 
299.582  9.10000000e+01 
299.043  8.70000000e+01 
298.504  9.20000000e+01 
297.965  9.00000000e+01 
297.426  9.20000000e+01 
296.887  6.50000000e+01 
296.348  6.80000000e+01 
295.809  7.80000000e+01 
295.270  8.60000000e+01 
294.730  1.12000000e+02 
294.191  1.26000000e+02 
293.652  1.40000000e+02 
293.113  1.34000000e+02 
292.574  1.27000000e+02 
292.035  1.17000000e+02 
291.496  1.41000000e+02 
290.957  1.88000000e+02 
290.418  2.77000000e+02 
289.879  2.86000000e+02 
289.340  2.71000000e+02 
288.801  1.72000000e+02 
288.262  1.14000000e+02 
287.723  7.80000000e+01 
287.184  5.70000000e+01 
286.645  5.30000000e+01 
286.105  6.60000000e+01 
285.566  6.00000000e+01 
285.027  6.10000000e+01 
284.488  4.50000000e+01 
283.949  4.70000000e+01 
283.410  5.60000000e+01 
282.871  5.20000000e+01 
282.332  6.40000000e+01 
281.793  4.80000000e+01 
281.254  5.90000000e+01 
280.715  6.80000000e+01 
280.176  6.00000000e+01 
279.637  6.00000000e+01 
279.098  7.30000000e+01 
278.559  5.90000000e+01 
278.020  4.70000000e+01 
277.480  5.70000000e+01 
276.941  6.30000000e+01 
276.402  6.70000000e+01 
275.863  6.30000000e+01 
275.324  4.50000000e+01 
274.785  5.80000000e+01 
274.246  6.00000000e+01 
273.707  6.00000000e+01 
273.168  4.50000000e+01 
272.629  6.30000000e+01 
272.090  4.10000000e+01 
271.551  7.30000000e+01 
271.012  5.20000000e+01 
270.473  6.20000000e+01 
269.934  5.10000000e+01 
269.395  6.30000000e+01 
268.855  6.70000000e+01 
268.316  5.50000000e+01 
267.777  5.50000000e+01 
267.238  6.10000000e+01 
266.699  6.10000000e+01 
266.160  5.90000000e+01 
265.621  5.10000000e+01 
265.082  6.10000000e+01 
264.543  4.70000000e+01 
264.004  5.60000000e+01 
263.465  5.00000000e+01 
262.926  8.10000000e+01 
262.387  5.90000000e+01 
261.848  5.60000000e+01 
261.309  4.80000000e+01 
260.770  5.60000000e+01 
260.230  6.40000000e+01 
259.691  4.40000000e+01 
259.152  5.00000000e+01 
258.613  5.60000000e+01 
258.074  5.80000000e+01 
257.535  6.20000000e+01 
256.996  4.60000000e+01 
256.457  5.90000000e+01 
255.918  5.00000000e+01 
255.379  5.80000000e+01 
254.840  5.00000000e+01 
254.301  5.60000000e+01 
253.762  5.80000000e+01 
253.223  4.50000000e+01 
252.684  4.90000000e+01 
252.145  5.20000000e+01 
251.605  5.40000000e+01 
251.066  7.40000000e+01 
250.527  5.90000000e+01 
249.988  5.00000000e+01 
249.449  5.40000000e+01 
248.910  4.70000000e+01 
248.371  5.00000000e+01 
247.832  5.10000000e+01 
247.293  4.40000000e+01 
246.754  5.90000000e+01 
246.215  5.40000000e+01 
245.676  5.60000000e+01 
245.137  4.70000000e+01 
244.598  5.50000000e+01 
244.059  6.00000000e+01 
243.520  5.60000000e+01 
242.980  5.00000000e+01 
242.441  6.00000000e+01 
241.902  5.00000000e+01 
241.363  4.80000000e+01 
240.824  6.70000000e+01 
240.285  5.80000000e+01 
239.746  6.80000000e+01 
239.207  5.70000000e+01 
238.668  6.50000000e+01 
238.129  7.50000000e+01 
237.590  7.20000000e+01 
237.051  8.50000000e+01 
236.512  6.00000000e+01 
235.973  6.30000000e+01 
235.434  5.70000000e+01 
234.895  5.40000000e+01 
234.355  5.20000000e+01 
233.816  5.10000000e+01 
233.277  6.20000000e+01 
232.738  5.40000000e+01 
232.199  5.80000000e+01 
231.660  4.80000000e+01 
231.121  4.60000000e+01 
230.582  4.70000000e+01 
230.043  3.30000000e+01 
229.504  4.90000000e+01 
228.965  4.50000000e+01 
228.426  5.70000000e+01 
227.887  5.00000000e+01 
227.348  5.40000000e+01 
226.809  5.50000000e+01 
226.270  6.20000000e+01 
225.730  4.20000000e+01 
225.191  5.70000000e+01 
224.652  5.40000000e+01 
224.113  5.70000000e+01 
223.574  4.90000000e+01 
223.035  5.00000000e+01 
222.496  6.30000000e+01 
221.957  5.30000000e+01 
221.418  4.70000000e+01 
220.879  4.60000000e+01 
220.340  5.60000000e+01 
219.801  5.00000000e+01 
219.262  5.80000000e+01 
218.723  5.00000000e+01 
218.184  4.10000000e+01 
217.645  5.60000000e+01 
217.105  4.40000000e+01 
216.566  5.60000000e+01 
216.027  5.10000000e+01 
215.488  4.00000000e+01 
214.949  4.80000000e+01 
214.410  4.90000000e+01 
213.871  4.70000000e+01 
213.332  5.60000000e+01 
212.793  5.00000000e+01 
212.254  4.50000000e+01 
211.715  5.10000000e+01 
211.176  5.70000000e+01 
210.637  5.70000000e+01 
210.098  4.40000000e+01 
209.559  5.00000000e+01 
209.020  5.10000000e+01 
208.480  3.80000000e+01 
207.941  4.90000000e+01 
207.402  5.30000000e+01 
206.863  4.80000000e+01 
206.324  4.70000000e+01 
205.785  4.90000000e+01 
205.246  6.10000000e+01 
204.707  5.20000000e+01 
204.168  5.30000000e+01 
203.629  7.00000000e+01 
203.090  6.20000000e+01 
202.551  6.50000000e+01 
202.012  5.00000000e+01 
201.473  5.30000000e+01 
200.934  5.90000000e+01 
200.395  5.00000000e+01 
199.855  4.50000000e+01 
199.316  4.90000000e+01 
198.777  5.20000000e+01 
198.238  4.50000000e+01 
197.699  5.10000000e+01 
197.160  4.60000000e+01 
196.621  5.90000000e+01 
196.082  4.50000000e+01 
195.543  3.50000000e+01 
195.004  6.00000000e+01 
194.465  5.00000000e+01 
193.926  4.50000000e+01 
193.387  4.40000000e+01 
192.848  5.80000000e+01 
192.309  5.60000000e+01 
191.770  5.80000000e+01 
191.230  5.00000000e+01 
190.691  5.40000000e+01 
190.152  5.60000000e+01 
189.613  4.50000000e+01 
189.074  5.20000000e+01 
188.535  3.60000000e+01 
187.996  4.00000000e+01 
187.457  4.50000000e+01 
186.918  6.00000000e+01 
186.379  5.30000000e+01 
185.840  4.90000000e+01 
185.301  4.00000000e+01 
184.762  4.90000000e+01 
184.223  4.00000000e+01 
183.684  5.10000000e+01 
183.145  5.00000000e+01 
182.605  4.10000000e+01 
182.066  4.80000000e+01 
181.527  3.90000000e+01 
180.988  4.50000000e+01 
180.449  4.30000000e+01 
179.910  4.30000000e+01 
179.371  4.80000000e+01 
178.832  4.40000000e+01 
178.293  5.20000000e+01 
177.754  4.40000000e+01 
177.215  5.00000000e+01 
176.676  6.30000000e+01 
176.137  3.20000000e+01 
175.598  5.50000000e+01 
175.059  6.30000000e+01 
174.520  8.80000000e+01 
173.980  7.10000000e+01 
173.441  8.00000000e+01 
172.902  5.70000000e+01 
172.363  5.40000000e+01 
171.824  4.90000000e+01 
171.285  4.60000000e+01 
170.746  5.20000000e+01 
170.207  4.30000000e+01 
169.668  4.70000000e+01 
169.129  5.40000000e+01 
168.590  3.70000000e+01 
168.051  4.60000000e+01 
167.512  5.00000000e+01 
166.973  5.10000000e+01 
166.434  4.00000000e+01 
165.895  4.80000000e+01 
165.355  4.70000000e+01 
164.816  3.90000000e+01 
164.277  4.60000000e+01 
163.738  4.60000000e+01 
163.199  4.50000000e+01 
162.660  4.80000000e+01 
162.121  4.90000000e+01 
161.582  3.70000000e+01 
161.043  4.40000000e+01 
160.504  5.70000000e+01 
159.965  4.70000000e+01 
159.426  4.60000000e+01 
158.887  4.50000000e+01 
158.348  5.50000000e+01 
157.809  4.80000000e+01 
157.270  4.70000000e+01 
156.730  6.10000000e+01 
156.191  4.40000000e+01 
155.652  4.30000000e+01 
155.113  4.60000000e+01 
154.574  3.50000000e+01 
154.035  4.60000000e+01 
153.496  3.80000000e+01 
152.957  4.80000000e+01 
152.418  4.70000000e+01 
151.879  3.20000000e+01 
151.340  5.20000000e+01 
150.801  3.70000000e+01 
150.262  4.00000000e+01 
149.723  3.50000000e+01 
149.184  4.10000000e+01 
148.645  5.60000000e+01 
148.105  4.40000000e+01 
147.566  4.10000000e+01 
147.027  3.30000000e+01 
146.488  4.40000000e+01 
145.949  4.40000000e+01 
145.410  4.10000000e+01 
144.871  4.00000000e+01 
144.332  4.30000000e+01 
143.793  3.50000000e+01 
143.254  4.80000000e+01 
142.715  5.00000000e+01 
142.176  3.40000000e+01 
141.637  5.20000000e+01 
141.098  3.60000000e+01 
140.559  3.90000000e+01 
140.020  4.00000000e+01 
139.480  4.50000000e+01 
138.941  4.00000000e+01 
138.402  4.70000000e+01 
137.863  3.30000000e+01 
137.324  3.40000000e+01 
136.785  4.80000000e+01 
136.246  3.50000000e+01 
135.707  2.60000000e+01 
135.168  3.30000000e+01 
134.629  4.60000000e+01 
134.090  4.50000000e+01 
133.551  3.60000000e+01 
133.012  3.70000000e+01 
132.473  3.50000000e+01 
131.934  3.30000000e+01 
131.395  3.60000000e+01 
130.855  3.40000000e+01 
130.316  2.80000000e+01 
129.777  4.10000000e+01 
129.238  4.00000000e+01 
128.699  4.10000000e+01 
128.160  3.60000000e+01 
127.621  5.00000000e+01 
127.082  4.60000000e+01 
126.543  4.00000000e+01 
126.004  4.60000000e+01 
125.465  5.30000000e+01 
124.926  4.00000000e+01 
124.387  4.10000000e+01 
123.848  4.30000000e+01 
123.309  4.00000000e+01 
122.770  4.10000000e+01 
122.230  3.90000000e+01 
121.691  4.00000000e+01 
121.152  3.90000000e+01 
120.613  2.60000000e+01 
120.074  4.00000000e+01 
119.535  3.80000000e+01 
118.996  4.70000000e+01 
118.457  4.10000000e+01 
117.918  3.40000000e+01 
117.379  4.00000000e+01 
116.840  2.90000000e+01 
116.301  3.60000000e+01 
115.762  3.40000000e+01 
115.223  3.50000000e+01 
114.684  5.10000000e+01 
114.145  3.70000000e+01 
113.605  3.20000000e+01 
113.066  3.90000000e+01 
112.527  4.50000000e+01 
111.988  4.20000000e+01 
111.449  3.50000000e+01 
110.910  3.60000000e+01 
110.371  3.80000000e+01 
109.832  5.20000000e+01 
109.293  4.50000000e+01 
108.754  3.80000000e+01 
108.215  4.40000000e+01 
107.676  4.90000000e+01 
107.137  5.70000000e+01 
106.598  4.70000000e+01 
106.059  4.50000000e+01 
105.520  3.70000000e+01 
104.980  3.60000000e+01 
104.441  4.50000000e+01 
103.902  4.20000000e+01 
103.363  4.30000000e+01 
102.824  3.50000000e+01 
102.285  4.10000000e+01 
101.746  3.30000000e+01 
101.207  3.20000000e+01 
100.668  4.30000000e+01 
100.129  2.60000000e+01 
99.590   4.50000000e+01 
99.051   3.60000000e+01 
98.512   3.50000000e+01 
97.973   3.90000000e+01 
97.434   3.80000000e+01 
96.895   3.90000000e+01 
96.355   4.90000000e+01 
95.816   3.60000000e+01 
95.277   3.10000000e+01 
94.738   4.80000000e+01 
94.199   4.90000000e+01 
93.660   3.30000000e+01 
93.121   4.70000000e+01 
92.582   3.50000000e+01 
92.043   3.80000000e+01 
91.504   3.10000000e+01 
90.965   4.20000000e+01 
90.426   3.70000000e+01 
89.887   3.90000000e+01 
89.348   2.60000000e+01 
88.809   2.90000000e+01 
88.270   3.30000000e+01 
87.730   4.00000000e+01 
87.191   3.20000000e+01 
86.652   3.50000000e+01 
86.113   4.20000000e+01 
85.574   3.70000000e+01 
85.035   2.50000000e+01 
84.496   3.20000000e+01 
83.957   2.40000000e+01 
83.418   3.80000000e+01 
82.879   3.20000000e+01 
82.340   2.70000000e+01 
81.801   1.90000000e+01 
81.262   3.80000000e+01 
80.723   3.30000000e+01 
80.184   2.20000000e+01 
79.645   3.30000000e+01 
79.105   2.60000000e+01 
78.566   3.40000000e+01 
78.027   2.70000000e+01 
77.488   2.60000000e+01 
76.949   2.20000000e+01 
76.410   3.00000000e+01 
75.871   4.20000000e+01 
75.332   2.90000000e+01 
74.793   2.10000000e+01 
74.254   3.00000000e+01 
73.715   3.10000000e+01 
73.176   1.90000000e+01 
72.637   2.40000000e+01 
72.098   2.80000000e+01 
71.559   3.10000000e+01 
71.020   3.30000000e+01 
70.480   2.90000000e+01 
69.941   2.30000000e+01 
69.402   3.40000000e+01 
68.863   5.90000000e+01 
68.324   7.10000000e+01 
67.785   7.60000000e+01 
67.246   5.20000000e+01 
66.707   3.40000000e+01 
66.168   2.50000000e+01 
65.629   2.00000000e+01 
65.090   2.50000000e+01 
64.551   2.10000000e+01 
64.012   2.10000000e+01 
63.473   2.60000000e+01 
62.934   3.00000000e+01 
62.395   3.20000000e+01 
61.855   2.20000000e+01 
61.316   3.30000000e+01 
60.777   3.90000000e+01 
60.238   2.70000000e+01 
59.699   2.70000000e+01 
59.160   2.90000000e+01 
58.621   2.80000000e+01 
58.082   2.60000000e+01 
57.543   2.30000000e+01 
57.004   1.90000000e+01 
56.465   1.90000000e+01 
55.926   2.60000000e+01 
55.387   4.50000000e+01 
54.848   2.70000000e+01 
54.309   3.10000000e+01 
53.770   4.70000000e+01 
53.230   3.30000000e+01 
52.691   2.10000000e+01 
52.152   2.10000000e+01 
51.613   1.80000000e+01 
51.074   1.60000000e+01 
50.535   1.10000000e+01 
49.996   1.40000000e+01 
49.457   1.60000000e+01 
48.918   1.40000000e+01 
48.379   1.90000000e+01 
47.840   1.60000000e+01 
47.301   2.20000000e+01 
46.762   1.30000000e+01 
46.223   1.10000000e+01 
45.684   1.40000000e+01 
45.145   1.90000000e+01 
44.605   1.70000000e+01 
44.066   1.30000000e+01 
43.527   1.40000000e+01 
42.988   1.90000000e+01 
42.449   1.90000000e+01 
41.910   1.50000000e+01 
41.371   1.50000000e+01 
40.832   7.00000000e+00 
40.293   8.00000000e+00 
39.754   1.60000000e+01 
39.215   7.00000000e+00 
38.676   1.90000000e+01 
38.137   2.00000000e+01 
37.598   1.50000000e+01 
37.059   2.00000000e+01 
36.520   1.80000000e+01 
35.980   3.10000000e+01 
35.441   3.80000000e+01 
34.902   4.60000000e+01 
34.363   3.00000000e+01 
33.824   1.70000000e+01 
33.285   1.70000000e+01 
32.746   2.00000000e+01 
32.207   2.00000000e+01 
31.668   1.50000000e+01 
31.129   1.80000000e+01 
30.590   2.40000000e+01 
30.051   2.80000000e+01 
29.512   3.40000000e+01 
28.973   2.40000000e+01 
28.434   1.90000000e+01 
27.895   2.60000000e+01 
27.355   1.80000000e+01 
26.816   2.50000000e+01 
26.277   1.40000000e+01 
25.738   1.10000000e+01 
25.199   9.00000000e+00 
24.660   8.00000000e+00 
24.121   9.00000000e+00 
23.582   1.40000000e+01 
23.043   1.00000000e+01 
22.504   2.00000000e+01 
21.965   1.20000000e+01 
21.426   7.00000000e+00 
20.887   8.00000000e+00 
20.348   7.00000000e+00 
19.809   6.00000000e+00 
19.270   4.00000000e+00 
18.730   1.10000000e+01 
18.191   1.10000000e+01 
17.652   8.00000000e+00 
17.113   8.00000000e+00 
16.574   1.10000000e+01 
16.035   1.30000000e+01 
15.496   1.10000000e+01 
14.957   1.50000000e+01 
14.418   8.00000000e+00 
13.879   1.20000000e+01 
13.340   8.00000000e+00 
12.801   4.00000000e+00 
12.262   1.00000000e+01 
11.723   7.00000000e+00 
11.184   1.30000000e+01 
10.645   8.00000000e+00 
10.105   8.00000000e+00 
9.566    8.00000000e+00 
9.027    7.00000000e+00 
8.488    1.00000000e+01 
7.949    7.00000000e+00 
7.410    4.00000000e+00 
6.871    7.00000000e+00 
6.332    0.00000000e+00 
5.793    1.00000000e+00 
5.254    4.00000000e+00 
4.715    0.00000000e+00 
4.176    4.00000000e+00 
3.637    1.00000000e+00 
3.098    0.00000000e+00 
2.559    4.00000000e+00 
2.020    1.00000000e+00 
1.480    2.00000000e+00 
0.941    2.00000000e+00 
0.402    2.00000000e+00 
-0.137   1.00000000e+00 
-0.676   2.00000000e+00 
-1.215   1.00000000e+00 
-1.754   1.00000000e+00 
-2.293   0.00000000e+00 
-2.832   0.00000000e+00 
-3.371   2.00000000e+00 
-3.910   0.00000000e+00 
-4.449   3.00000000e+00 
-4.988   0.00000000e+00 
-5.527   1.00000000e+00 
-6.066   2.00000000e+00 
-6.605   1.00000000e+00 
-7.145   1.00000000e+00 
-7.684   0.00000000e+00 
-8.223   2.00000000e+00 
-8.762   2.00000000e+00 
-9.301   1.00000000e+00 
-9.840   2.00000000e+00 

